Loop Time (ms)	IR (16 bit)	Force (N)
259.000	10688.000	1533.830
55.000	10696.000	1533.960
64.000	10694.000	1533.960
65.000	10692.000	1533.830
79.000	10691.000	1533.830
64.000	10693.000	1533.830
64.000	10696.000	1533.960
64.000	10697.000	1533.960
64.000	10694.000	1533.960
64.000	10693.000	1533.960
64.000	10696.000	1533.960
64.000	10698.000	1533.960
64.000	10692.000	1533.960
64.000	10697.000	1533.830
63.000	10698.000	1533.830
65.000	10696.000	1533.960
80.000	10694.000	1533.960
64.000	10692.000	1533.960
63.000	10694.000	1533.960
65.000	10696.000	1533.960
64.000	10694.000	1533.830
63.000	10691.000	1533.960
65.000	10696.000	1533.960
64.000	10699.000	1533.960
64.000	10694.000	1533.960
63.000	10695.000	1533.960
64.000	10696.000	1534.080
65.000	10695.000	1533.960
63.000	10695.000	1533.960
81.000	10696.000	1533.830
63.000	10695.000	1533.960
64.000	10698.000	1533.960
64.000	10693.000	1533.960
64.000	10695.000	1533.960
64.000	10694.000	1533.830
64.000	10702.000	1533.960
64.000	10696.000	1533.830
64.000	10697.000	1533.960
64.000	10693.000	1533.830
64.000	10697.000	1533.960
64.000	10695.000	1533.960
80.000	10698.000	1533.960
64.000	10694.000	1533.960
64.000	10695.000	1533.960
64.000	10697.000	1533.960
64.000	10695.000	1533.960
63.000	10695.000	1533.960
65.000	10699.000	1533.960
63.000	10696.000	1533.960
64.000	10693.000	1533.830
64.000	10694.000	1533.960
64.000	10695.000	1533.830
64.000	10698.000	1533.960
81.000	10700.000	1533.960
63.000	10697.000	1533.960
64.000	10695.000	1534.080
64.000	10695.000	1533.830
65.000	10698.000	1533.830
63.000	10693.000	1533.960
64.000	10696.000	1533.960
64.000	10696.000	1533.830
64.000	10694.000	1533.960
64.000	10696.000	1533.960
64.000	10695.000	1533.960
64.000	10694.000	1533.960
80.000	10698.000	1533.960
64.000	10699.000	1533.960
64.000	10696.000	1534.080
64.000	10696.000	1533.830
64.000	10696.000	1533.960
64.000	10695.000	1533.960
64.000	10694.000	1533.960
64.000	10697.000	1533.960
64.000	10696.000	1533.960
64.000	10699.000	1533.960
64.000	10693.000	1533.960
64.000	10698.000	1533.960
80.000	10697.000	1533.960
63.000	10695.000	1533.960
64.000	10694.000	1533.960
64.000	10699.000	1533.960
64.000	10691.000	1534.080
64.000	10698.000	1533.960
64.000	10697.000	1533.960
64.000	10699.000	1533.960
65.000	10696.000	1533.960
63.000	10700.000	1533.960
64.000	10697.000	1533.960
64.000	10696.000	1533.960
80.000	10693.000	1533.960
65.000	10699.000	1533.960
64.000	10699.000	1533.960
63.000	10699.000	1533.960
65.000	10698.000	1533.960
63.000	10699.000	1533.960
64.000	10697.000	1533.960
65.000	10693.000	1533.960
63.000	10700.000	1533.960
64.000	10698.000	1533.960
64.000	10697.000	1533.830
63.000	10697.000	1533.960
81.000	10694.000	1533.960
64.000	10698.000	1533.960
63.000	10696.000	1533.960
65.000	10692.000	1533.960
63.000	10698.000	1533.960
65.000	10696.000	1533.960
64.000	10698.000	1534.080
63.000	10698.000	1533.960
64.000	10700.000	1533.960
65.000	10698.000	1533.960
63.000	10700.000	1533.960
65.000	10695.000	1533.960
80.000	10694.000	1533.960
64.000	10693.000	1533.960
64.000	10698.000	1533.960
63.000	10697.000	1533.960
64.000	10702.000	1533.960
64.000	10696.000	1533.960
64.000	10699.000	1533.960
64.000	10698.000	1533.960
64.000	10700.000	1533.960
64.000	10698.000	1533.960
65.000	10700.000	1533.960
63.000	10698.000	1533.960
80.000	10697.000	1533.960
64.000	10697.000	1533.960
64.000	10694.000	1533.960
64.000	10699.000	1533.960
64.000	10699.000	1534.080
64.000	10695.000	1533.960
63.000	10701.000	1533.960
65.000	10695.000	1533.960
64.000	10696.000	1533.960
64.000	10696.000	1533.960
64.000	10699.000	1534.080
64.000	10698.000	1533.960
80.000	10701.000	1533.960
64.000	10697.000	1533.960
64.000	10701.000	1533.960
63.000	10697.000	1533.960
64.000	10696.000	1533.960
64.000	10697.000	1533.960
64.000	10700.000	1533.960
64.000	10698.000	1533.960
64.000	10703.000	1533.960
65.000	10698.000	1533.960
63.000	10703.000	1533.960
64.000	10699.000	1533.960
81.000	10701.000	1533.960
64.000	10701.000	1533.960
64.000	10700.000	1533.960
64.000	10698.000	1533.960
63.000	10698.000	1533.960
64.000	10697.000	1533.960
64.000	10700.000	1533.960
64.000	10696.000	1533.960
64.000	10701.000	1533.960
64.000	10699.000	1533.960
64.000	10702.000	1533.960
64.000	10697.000	1533.960
80.000	10699.000	1534.080
64.000	10699.000	1533.960
64.000	10696.000	1534.080
64.000	10700.000	1534.080
64.000	10700.000	1533.960
63.000	10698.000	1533.960
64.000	10697.000	1534.080
64.000	10701.000	1533.960
64.000	10701.000	1534.080
64.000	10693.000	1533.960
64.000	10698.000	1533.960
64.000	10699.000	1533.960
80.000	10701.000	1533.830
64.000	10704.000	1533.960
64.000	10699.000	1533.960
64.000	10699.000	1533.960
64.000	10700.000	1534.080
65.000	10701.000	1533.960
63.000	10696.000	1533.960
64.000	10702.000	1533.960
64.000	10698.000	1534.080
65.000	10698.000	1533.960
63.000	10698.000	1534.080
64.000	10700.000	1533.960
80.000	10699.000	1533.960
64.000	10698.000	1533.960
64.000	10700.000	1533.830
64.000	10704.000	1534.080
64.000	10722.000	1533.830
64.000	10735.000	1534.080
64.000	10746.000	1533.960
64.000	10761.000	1533.960
64.000	10777.000	1533.960
63.000	10796.000	1533.960
65.000	10807.000	1533.960
64.000	10821.000	1533.960
79.000	10841.000	1533.960
64.000	10861.000	1533.960
64.000	10879.000	1533.830
64.000	10903.000	1533.960
64.000	10922.000	1533.960
65.000	10941.000	1533.830
64.000	10962.000	1533.830
63.000	10985.000	1533.960
65.000	11001.000	1533.960
64.000	11027.000	1533.960
63.000	11045.000	1534.080
64.000	11072.000	1533.960
64.000	11100.000	1533.830
81.000	11124.000	1534.080
64.000	11149.000	1533.960
63.000	11180.000	1533.960
64.000	11204.000	1533.960
65.000	11235.000	1534.080
64.000	11258.000	1533.960
63.000	11294.000	1533.960
64.000	11315.000	1533.960
64.000	11343.000	1533.960
64.000	11379.000	1534.080
64.000	11411.000	1534.080
64.000	11450.000	1533.960
80.000	11479.000	1533.960
64.000	11516.000	1534.080
64.000	11551.000	1533.960
64.000	11593.000	1534.080
64.000	11634.000	1534.080
64.000	11680.000	1534.080
64.000	11718.000	1534.080
63.000	11766.000	1533.960
65.000	11806.000	1533.960
63.000	11859.000	1533.960
65.000	11910.000	1533.960
64.000	11957.000	1533.960
80.000	12010.000	1533.960
63.000	12064.000	1534.080
64.000	12106.000	1534.210
64.000	12159.000	1534.600
64.000	12214.000	1534.980
64.000	12265.000	1535.490
65.000	12329.000	1536.000
64.000	12393.000	1536.640
63.000	12459.000	1537.150
64.000	12412.000	1536.640
64.000	12347.000	1536.000
65.000	12281.000	1535.490
79.000	12221.000	1534.980
64.000	12175.000	1534.600
64.000	12120.000	1534.470
64.000	12074.000	1534.210
64.000	12028.000	1534.210
64.000	11974.000	1534.210
64.000	11928.000	1534.210
64.000	11875.000	1534.210
64.000	11825.000	1534.080
64.000	11781.000	1534.080
63.000	11736.000	1533.960
65.000	11692.000	1534.080
79.000	11647.000	1534.080
65.000	11614.000	1534.080
64.000	11570.000	1534.080
63.000	11533.000	1533.960
65.000	11498.000	1534.080
64.000	11461.000	1534.080
64.000	11423.000	1534.080
63.000	11390.000	1534.080
64.000	11361.000	1534.080
64.000	11331.000	1534.080
64.000	11298.000	1533.960
64.000	11271.000	1534.080
81.000	11244.000	1534.080
63.000	11212.000	1533.960
64.000	11189.000	1534.080
64.000	11162.000	1533.960
66.000	11138.000	1534.080
63.000	11107.000	1534.080
64.000	11085.000	1533.960
63.000	11068.000	1534.080
64.000	11035.000	1534.080
64.000	11011.000	1533.960
64.000	10990.000	1534.080
65.000	10973.000	1533.960
79.000	10948.000	1534.080
64.000	10928.000	1534.080
64.000	10908.000	1534.080
64.000	10890.000	1534.080
64.000	10870.000	1534.080
64.000	10850.000	1534.080
64.000	10834.000	1533.960
63.000	10815.000	1534.080
64.000	10799.000	1534.080
64.000	10785.000	1534.080
64.000	10765.000	1533.960
64.000	10754.000	1534.080
80.000	10742.000	1534.080
64.000	10724.000	1534.080
64.000	10708.000	1534.080
65.000	10698.000	1533.960
64.000	10702.000	1534.080
64.000	10707.000	1534.080
64.000	10704.000	1534.080
63.000	10704.000	1534.080
64.000	10705.000	1534.080
65.000	10702.000	1534.080
63.000	10700.000	1534.080
64.000	10701.000	1533.960
81.000	10702.000	1534.080
63.000	10704.000	1534.080
64.000	10702.000	1534.080
64.000	10700.000	1533.960
79.000	10703.000	1534.080
49.000	10703.000	1533.960
63.000	10703.000	1534.080
65.000	10705.000	1534.080
64.000	10702.000	1534.080
64.000	10704.000	1534.080
63.000	10703.000	1534.080
64.000	10702.000	1534.080
81.000	10703.000	1533.960
64.000	10701.000	1534.080
64.000	10704.000	1534.080
63.000	10701.000	1534.080
65.000	10701.000	1534.080
63.000	10700.000	1534.080
64.000	10700.000	1533.960
64.000	10703.000	1534.080
65.000	10704.000	1534.210
63.000	10705.000	1534.080
65.000	10704.000	1534.080
64.000	10700.000	1533.960
80.000	10704.000	1534.080
95.000	10701.000	1534.080
32.000	10702.000	1533.960
64.000	10705.000	1533.960
64.000	10703.000	1534.080
64.000	10701.000	1534.080
64.000	10702.000	1534.080
64.000	10707.000	1534.080
64.000	10702.000	1534.080
64.000	10706.000	1534.080
64.000	10704.000	1534.080
64.000	10704.000	1533.960
83.000	10705.000	1534.080
61.000	10707.000	1534.080
63.000	10706.000	1533.960
64.000	10702.000	1534.080
65.000	10707.000	1534.080
65.000	10707.000	1534.080
63.000	10704.000	1534.210
64.000	10702.000	1534.080
65.000	10705.000	1533.960
62.000	10703.000	1534.080
64.000	10705.000	1534.080
65.000	10707.000	1534.080
79.000	10703.000	1534.080
66.000	10701.000	1533.960
62.000	10702.000	1534.080
65.000	10705.000	1534.080
63.000	10705.000	1534.080
64.000	10704.000	1534.080
64.000	10707.000	1534.080
64.000	10705.000	1534.080
64.000	10705.000	1534.080
64.000	10704.000	1534.080
64.000	10704.000	1534.080
64.000	10704.000	1533.960
65.000	10700.000	1534.080
79.000	10705.000	1534.080
64.000	10705.000	1534.080
64.000	10703.000	1534.080
64.000	10704.000	1534.080
64.000	10701.000	1534.080
65.000	10704.000	1534.080
63.000	10706.000	1534.080
69.000	10701.000	1534.080
59.000	10701.000	1534.080
64.000	10706.000	1534.080
96.000	10707.000	1534.080
32.000	10705.000	1533.960
80.000	10706.000	1534.080
64.000	10703.000	1534.080
64.000	10703.000	1534.080
64.000	10705.000	1534.080
63.000	10705.000	1534.080
64.000	10708.000	1534.210
64.000	10701.000	1534.080
65.000	10704.000	1534.080
63.000	10703.000	1534.080
65.000	10706.000	1534.210
63.000	10703.000	1533.960
65.000	10705.000	1534.080
79.000	10709.000	1534.080
65.000	10706.000	1534.080
63.000	10711.000	1534.080
64.000	10728.000	1534.080
65.000	10740.000	1534.080
63.000	10755.000	1534.080
65.000	10771.000	1533.960
63.000	10788.000	1534.080
64.000	10801.000	1534.080
65.000	10819.000	1534.080
63.000	10829.000	1534.080
64.000	10854.000	1534.080
80.000	10875.000	1533.960
64.000	10894.000	1534.080
64.000	10911.000	1534.080
64.000	10932.000	1533.960
64.000	10948.000	1533.960
64.000	10973.000	1533.960
64.000	10991.000	1534.080
64.000	11010.000	1534.080
64.000	11037.000	1534.080
64.000	11058.000	1534.080
64.000	11085.000	1534.080
64.000	11110.000	1533.960
79.000	11137.000	1533.960
65.000	11164.000	1534.080
64.000	11191.000	1533.960
63.000	11215.000	1534.080
64.000	11242.000	1533.960
64.000	11278.000	1534.080
65.000	11300.000	1534.210
64.000	11333.000	1533.960
63.000	11362.000	1534.210
64.000	11398.000	1534.210
64.000	11426.000	1534.080
64.000	11461.000	1533.960
80.000	11497.000	1534.080
64.000	11534.000	1534.080
64.000	11572.000	1534.080
64.000	11610.000	1534.080
64.000	11649.000	1534.080
64.000	11696.000	1533.960
63.000	11736.000	1534.080
65.000	11784.000	1534.080
64.000	11835.000	1534.210
64.000	11874.000	1534.080
64.000	11922.000	1534.210
64.000	11977.000	1534.080
80.000	12029.000	1534.210
64.000	12081.000	1534.340
64.000	12125.000	1534.340
64.000	12177.000	1534.720
63.000	12235.000	1535.110
65.000	12290.000	1535.620
64.000	12352.000	1536.130
63.000	12417.000	1536.900
65.000	12465.000	1537.410
63.000	12411.000	1536.770
64.000	12339.000	1535.870
64.000	12280.000	1535.490
80.000	12220.000	1534.980
64.000	12167.000	1534.600
65.000	12118.000	1534.340
63.000	12078.000	1534.210
65.000	12026.000	1534.080
63.000	11971.000	1534.210
64.000	11922.000	1534.080
64.000	11871.000	1534.080
65.000	11826.000	1534.080
63.000	11780.000	1534.210
64.000	11730.000	1534.080
64.000	11685.000	1534.080
79.000	11649.000	1534.080
65.000	11606.000	1534.080
64.000	11571.000	1534.210
64.000	11526.000	1534.080
64.000	11496.000	1534.080
64.000	11456.000	1534.210
63.000	11427.000	1534.080
64.000	11393.000	1534.080
65.000	11364.000	1534.080
64.000	11325.000	1534.210
64.000	11294.000	1534.080
63.000	11274.000	1533.960
81.000	11241.000	1534.080
64.000	11220.000	1534.210
63.000	11195.000	1534.080
65.000	11164.000	1534.080
63.000	11140.000	1534.080
64.000	11115.000	1534.080
65.000	11084.000	1534.080
63.000	11058.000	1534.080
64.000	11037.000	1534.080
64.000	11015.000	1534.080
64.000	11000.000	1534.080
65.000	10973.000	1534.210
79.000	10952.000	1534.210
64.000	10933.000	1534.210
64.000	10907.000	1534.210
64.000	10892.000	1534.080
64.000	10875.000	1534.080
63.000	10858.000	1534.210
65.000	10837.000	1534.080
64.000	10820.000	1534.210
64.000	10802.000	1534.210
64.000	10789.000	1534.080
64.000	10771.000	1534.080
64.000	10758.000	1534.080
79.000	10745.000	1534.080
64.000	10728.000	1534.210
64.000	10716.000	1534.080
65.000	10702.000	1534.080
64.000	10705.000	1534.080
64.000	10712.000	1534.080
64.000	10707.000	1534.080
64.000	10707.000	1534.210
63.000	10710.000	1534.080
65.000	10706.000	1534.080
63.000	10711.000	1534.210
64.000	10712.000	1534.080
81.000	10709.000	1534.080
63.000	10708.000	1534.210
64.000	10708.000	1534.210
64.000	10708.000	1534.210
64.000	10712.000	1534.210
64.000	10709.000	1534.210
64.000	10707.000	1534.210
64.000	10706.000	1534.080
64.000	10706.000	1534.080
63.000	10708.000	1534.080
65.000	10711.000	1534.080
64.000	10704.000	1534.080
80.000	10709.000	1534.080
64.000	10707.000	1534.210
64.000	10710.000	1534.080
63.000	10707.000	1534.080
64.000	10708.000	1533.960
64.000	10706.000	1533.960
64.000	10709.000	1534.080
65.000	10708.000	1534.080
64.000	10705.000	1534.080
64.000	10708.000	1534.080
63.000	10707.000	1534.210
64.000	10707.000	1534.080
80.000	10712.000	1534.210
65.000	10712.000	1534.080
63.000	10714.000	1534.210
64.000	10712.000	1534.210
64.000	10708.000	1534.080
64.000	10709.000	1534.080
64.000	10706.000	1534.210
64.000	10708.000	1534.080
64.000	10706.000	1534.080
64.000	10709.000	1534.080
64.000	10708.000	1534.210
65.000	10707.000	1534.080
63.000	10711.000	1534.080
80.000	10712.000	1534.080
64.000	10711.000	1534.080
65.000	10711.000	1534.080
63.000	10709.000	1534.080
64.000	10710.000	1534.210
64.000	10708.000	1534.340
64.000	10708.000	1534.080
63.000	10705.000	1534.210
64.000	10706.000	1534.080
65.000	10707.000	1534.080
63.000	10708.000	1534.210
65.000	10710.000	1534.210
80.000	10710.000	1534.080
64.000	10707.000	1534.080
63.000	10708.000	1534.080
64.000	10708.000	1534.080
65.000	10709.000	1534.080
64.000	10709.000	1534.210
63.000	10710.000	1534.210
64.000	10709.000	1534.210
65.000	10709.000	1534.080
64.000	10710.000	1534.210
63.000	10708.000	1534.210
64.000	10709.000	1534.080
80.000	10713.000	1534.210
64.000	10708.000	1534.210
64.000	10707.000	1534.210
64.000	10709.000	1534.080
65.000	10709.000	1534.080
63.000	10709.000	1534.210
64.000	10711.000	1534.210
64.000	10709.000	1534.080
64.000	10710.000	1534.080
64.000	10715.000	1534.210
64.000	10711.000	1534.080
64.000	10708.000	1534.210
80.000	10706.000	1534.080
64.000	10712.000	1534.080
64.000	10710.000	1534.080
64.000	10712.000	1534.080
64.000	10710.000	1533.960
63.000	10709.000	1534.210
65.000	10709.000	1534.210
64.000	10712.000	1534.210
64.000	10712.000	1534.080
64.000	10709.000	1534.080
63.000	10709.000	1534.080
64.000	10707.000	1534.340
80.000	10712.000	1534.210
65.000	10715.000	1534.210
63.000	10727.000	1534.080
65.000	10747.000	1534.080
63.000	10756.000	1534.080
65.000	10770.000	1534.080
63.000	10790.000	1534.080
64.000	10806.000	1534.080
64.000	10819.000	1534.080
65.000	10842.000	1534.080
63.000	10852.000	1534.210
64.000	10878.000	1534.080
80.000	10884.000	1534.080
64.000	10905.000	1534.210
63.000	10930.000	1534.210
65.000	10947.000	1534.210
64.000	10970.000	1534.210
64.000	10997.000	1534.210
64.000	11013.000	1534.080
64.000	11034.000	1534.210
64.000	11061.000	1534.210
63.000	11083.000	1534.210
65.000	11116.000	1534.210
64.000	11136.000	1534.210
80.000	11160.000	1534.080
63.000	11193.000	1534.080
64.000	11214.000	1534.080
65.000	11244.000	1534.080
63.000	11274.000	1534.080
65.000	11303.000	1534.080
63.000	11333.000	1534.080
65.000	11358.000	1534.210
63.000	11392.000	1534.080
65.000	11427.000	1534.210
63.000	11462.000	1534.080
64.000	11496.000	1534.210
80.000	11542.000	1534.210
64.000	11568.000	1534.210
64.000	11609.000	1534.210
65.000	11652.000	1534.080
63.000	11693.000	1534.210
64.000	11740.000	1534.210
64.000	11781.000	1534.210
64.000	11826.000	1534.210
64.000	11876.000	1534.080
63.000	11926.000	1534.080
65.000	11975.000	1534.210
64.000	12027.000	1534.210
80.000	12080.000	1534.210
64.000	12125.000	1534.470
63.000	12178.000	1534.720
65.000	12225.000	1535.110
63.000	12284.000	1535.620
64.000	12345.000	1536.260
65.000	12411.000	1536.770
64.000	12478.000	1537.660
63.000	12448.000	1537.150
64.000	12374.000	1536.390
64.000	12314.000	1535.750
64.000	12251.000	1535.230
80.000	12196.000	1534.850
64.000	12147.000	1534.600
65.000	12097.000	1534.470
63.000	12052.000	1534.210
64.000	12000.000	1534.340
64.000	11949.000	1534.210
64.000	11899.000	1534.340
65.000	11850.000	1534.210
63.000	11799.000	1534.080
64.000	11761.000	1534.210
64.000	11714.000	1534.080
64.000	11672.000	1534.210
80.000	11627.000	1534.340
64.000	11589.000	1534.080
64.000	11552.000	1534.210
64.000	11510.000	1534.210
64.000	11483.000	1534.210
64.000	11443.000	1534.210
63.000	11413.000	1534.080
65.000	11378.000	1534.210
64.000	11352.000	1534.210
64.000	11321.000	1534.210
63.000	11293.000	1534.210
64.000	11264.000	1534.080
80.000	11235.000	1534.210
64.000	11202.000	1534.210
64.000	11181.000	1534.210
65.000	11152.000	1534.210
63.000	11128.000	1534.210
64.000	11100.000	1534.080
64.000	11074.000	1534.080
64.000	11050.000	1534.210
64.000	11025.000	1534.210
64.000	11003.000	1534.210
65.000	10988.000	1534.210
63.000	10964.000	1534.210
80.000	10947.000	1534.080
64.000	10926.000	1534.210
64.000	10900.000	1534.210
64.000	10888.000	1534.210
64.000	10869.000	1534.080
64.000	10851.000	1534.210
64.000	10834.000	1534.210
64.000	10814.000	1534.080
63.000	10801.000	1534.210
64.000	10785.000	1534.080
64.000	10766.000	1534.210
65.000	10743.000	1534.080
79.000	10739.000	1534.210
65.000	10726.000	1534.210
63.000	10710.000	1534.080
65.000	10705.000	1534.210
63.000	10715.000	1534.210
64.000	10714.000	1534.080
64.000	10711.000	1534.210
65.000	10714.000	1534.210
63.000	10711.000	1534.080
64.000	10714.000	1534.210
64.000	10712.000	1534.210
64.000	10716.000	1534.210
80.000	10716.000	1534.210
65.000	10721.000	1534.210
63.000	10711.000	1534.210
65.000	10711.000	1534.210
63.000	10718.000	1534.080
64.000	10716.000	1534.080
64.000	10717.000	1534.210
64.000	10714.000	1534.080
64.000	10714.000	1534.210
65.000	10716.000	1534.210
63.000	10714.000	1534.210
63.000	10716.000	1534.210
81.000	10711.000	1534.080
63.000	10713.000	1534.340
65.000	10718.000	1534.210
64.000	10712.000	1534.080
64.000	10717.000	1534.210
64.000	10714.000	1534.210
63.000	10715.000	1534.080
64.000	10712.000	1534.340
65.000	10716.000	1534.080
64.000	10713.000	1534.210
64.000	10710.000	1534.340
64.000	10713.000	1534.210
79.000	10716.000	1534.210
64.000	10717.000	1534.210
64.000	10712.000	1534.210
64.000	10715.000	1534.210
64.000	10711.000	1534.210
64.000	10712.000	1534.080
65.000	10716.000	1534.210
64.000	10707.000	1534.210
63.000	10709.000	1534.080
65.000	10713.000	1534.210
64.000	10718.000	1534.210
64.000	10716.000	1534.210
63.000	10714.000	1534.210
80.000	10713.000	1534.210
64.000	10713.000	1534.210
64.000	10713.000	1534.340
65.000	10717.000	1534.080
62.000	10716.000	1534.210
65.000	10717.000	1534.210
63.000	10719.000	1534.080
65.000	10716.000	1534.210
64.000	10715.000	1534.080
63.000	10719.000	1534.210
65.000	10715.000	1534.080
64.000	10715.000	1534.210
80.000	10715.000	1534.210
64.000	10716.000	1534.210
63.000	10714.000	1534.080
64.000	10715.000	1534.210
64.000	10712.000	1534.080
64.000	10715.000	1534.210
64.000	10716.000	1534.210
64.000	10714.000	1534.340
64.000	10713.000	1534.210
65.000	10720.000	1534.210
63.000	10717.000	1534.080
64.000	10715.000	1534.210
80.000	10713.000	1534.080
64.000	10718.000	1534.210
64.000	10712.000	1534.210
64.000	10714.000	1534.210
63.000	10715.000	1534.210
65.000	10713.000	1534.210
64.000	10713.000	1534.210
64.000	10714.000	1534.210
64.000	10712.000	1534.210
64.000	10712.000	1534.210
63.000	10719.000	1534.340
65.000	10717.000	1534.210
80.000	10718.000	1534.210
64.000	10714.000	1534.210
64.000	10715.000	1534.210
63.000	10714.000	1534.210
64.000	10713.000	1534.210
64.000	10715.000	1534.210
65.000	10713.000	1534.210
64.000	10716.000	1534.210
63.000	10713.000	1534.080
64.000	10716.000	1534.210
64.000	10715.000	1534.210
64.000	10713.000	1534.210
80.000	10712.000	1534.080
64.000	10719.000	1534.210
64.000	10728.000	1534.210
64.000	10749.000	1534.210
64.000	10761.000	1534.080
64.000	10771.000	1534.080
64.000	10789.000	1534.340
64.000	10813.000	1534.210
64.000	10819.000	1534.210
64.000	10847.000	1534.210
64.000	10853.000	1534.210
64.000	10881.000	1534.080
80.000	10898.000	1534.210
63.000	10911.000	1534.340
64.000	10936.000	1534.210
64.000	10957.000	1534.210
65.000	10975.000	1534.340
63.000	10991.000	1534.210
64.000	11026.000	1534.210
65.000	11036.000	1534.210
63.000	11068.000	1534.210
64.000	11092.000	1534.080
65.000	11119.000	1534.210
63.000	11139.000	1534.210
81.000	11162.000	1534.080
64.000	11190.000	1534.210
63.000	11218.000	1534.080
64.000	11253.000	1534.210
64.000	11270.000	1534.340
65.000	11302.000	1534.210
64.000	11339.000	1534.080
64.000	11361.000	1534.210
63.000	11399.000	1534.210
64.000	11428.000	1534.210
64.000	11459.000	1534.210
64.000	11495.000	1534.210
80.000	11535.000	1534.210
64.000	11573.000	1534.210
64.000	11609.000	1534.210
64.000	11646.000	1534.210
64.000	11692.000	1534.210
64.000	11738.000	1534.340
63.000	11782.000	1534.210
65.000	11824.000	1534.210
64.000	11873.000	1534.210
63.000	11921.000	1534.340
65.000	11973.000	1534.080
63.000	12027.000	1534.210
81.000	12078.000	1534.470
64.000	12127.000	1534.470
64.000	12178.000	1534.850
64.000	12226.000	1535.110
63.000	12287.000	1535.490
64.000	12346.000	1536.130
64.000	12409.000	1536.900
64.000	12470.000	1537.410
64.000	12428.000	1537.020
64.000	12362.000	1536.260
64.000	12302.000	1535.750
64.000	12244.000	1535.230
80.000	12192.000	1534.850
65.000	12135.000	1534.470
63.000	12095.000	1534.470
64.000	12039.000	1534.340
63.000	11991.000	1534.210
65.000	11945.000	1534.210
64.000	11893.000	1534.210
64.000	11844.000	1534.340
64.000	11798.000	1534.340
64.000	11754.000	1534.340
64.000	11712.000	1534.210
64.000	11666.000	1534.210
80.000	11621.000	1534.210
63.000	11583.000	1534.210
65.000	11547.000	1534.210
64.000	11511.000	1534.210
63.000	11480.000	1534.340
65.000	11443.000	1534.210
63.000	11411.000	1534.210
65.000	11377.000	1534.340
64.000	11346.000	1534.210
63.000	11317.000	1534.210
64.000	11286.000	1534.210
64.000	11261.000	1534.340
80.000	11231.000	1534.340
64.000	11207.000	1534.210
64.000	11179.000	1534.340
65.000	11156.000	1534.210
63.000	11127.000	1534.210
64.000	11101.000	1534.210
64.000	11079.000	1534.210
64.000	11049.000	1534.210
64.000	11030.000	1534.340
64.000	11008.000	1534.210
64.000	10987.000	1534.210
63.000	10961.000	1534.210
81.000	10944.000	1534.210
64.000	10929.000	1534.210
64.000	10904.000	1534.210
64.000	10886.000	1534.340
64.000	10879.000	1534.080
64.000	10846.000	1534.210
64.000	10833.000	1534.340
64.000	10814.000	1534.210
63.000	10803.000	1534.210
64.000	10786.000	1534.340
64.000	10773.000	1534.210
65.000	10753.000	1534.080
80.000	10738.000	1534.210
63.000	10726.000	1534.210
64.000	10716.000	1534.340
64.000	10711.000	1534.340
65.000	10719.000	1534.210
64.000	10719.000	1534.210
63.000	10719.000	1534.210
65.000	10716.000	1534.340
64.000	10712.000	1534.210
63.000	10716.000	1534.210
64.000	10721.000	1534.210
64.000	10718.000	1534.340
80.000	10721.000	1534.210
64.000	10717.000	1534.210
64.000	10714.000	1534.210
64.000	10714.000	1534.210
64.000	10714.000	1534.210
64.000	10721.000	1534.210
64.000	10719.000	1534.340
63.000	10720.000	1534.340
64.000	10718.000	1534.340
64.000	10717.000	1534.210
65.000	10718.000	1534.210
63.000	10717.000	1534.340
80.000	10719.000	1534.210
65.000	10720.000	1534.340
64.000	10718.000	1534.340
63.000	10719.000	1534.340
64.000	10718.000	1534.210
64.000	10719.000	1534.210
64.000	10716.000	1534.210
64.000	10718.000	1534.210
64.000	10716.000	1534.340
64.000	10717.000	1534.210
64.000	10712.000	1534.210
64.000	10720.000	1534.210
80.000	10717.000	1534.210
64.000	10717.000	1534.210
64.000	10719.000	1534.340
64.000	10716.000	1534.210
64.000	10718.000	1534.210
64.000	10719.000	1534.080
64.000	10720.000	1534.210
64.000	10719.000	1534.340
63.000	10720.000	1534.210
65.000	10718.000	1534.340
64.000	10719.000	1534.340
64.000	10722.000	1534.210
80.000	10722.000	1534.210
63.000	10716.000	1534.210
65.000	10722.000	1534.210
63.000	10720.000	1534.210
65.000	10719.000	1534.210
64.000	10720.000	1534.210
64.000	10717.000	1534.080
63.000	10717.000	1534.210
64.000	10720.000	1534.210
64.000	10725.000	1534.210
65.000	10718.000	1534.210
64.000	10721.000	1534.340
64.000	10718.000	1534.340
79.000	10723.000	1534.210
64.000	10718.000	1534.340
64.000	10721.000	1534.340
64.000	10718.000	1534.340
64.000	10718.000	1534.210
64.000	10724.000	1534.210
64.000	10721.000	1534.210
64.000	10719.000	1534.340
64.000	10719.000	1534.210
64.000	10717.000	1534.340
64.000	10722.000	1534.210
64.000	10720.000	1534.340
80.000	10718.000	1534.210
64.000	10720.000	1534.210
64.000	10720.000	1534.210
64.000	10718.000	1534.210
64.000	10719.000	1534.340
63.000	10716.000	1534.210
65.000	10719.000	1534.210
63.000	10722.000	1534.340
65.000	10719.000	1534.340
64.000	10721.000	1534.210
64.000	10718.000	1534.210
64.000	10721.000	1534.210
80.000	10718.000	1534.340
64.000	10719.000	1534.340
64.000	10721.000	1534.210
63.000	10720.000	1534.210
64.000	10724.000	1534.340
65.000	10715.000	1534.340
64.000	10718.000	1534.080
64.000	10717.000	1534.340
63.000	10718.000	1534.210
65.000	10718.000	1534.340
63.000	10718.000	1534.340
65.000	10723.000	1534.210
80.000	10719.000	1534.340
63.000	10724.000	1534.340
64.000	10730.000	1534.210
64.000	10749.000	1534.340
63.000	10764.000	1534.210
65.000	10776.000	1534.340
63.000	10792.000	1534.210
65.000	10808.000	1534.340
63.000	10822.000	1534.210
65.000	10846.000	1534.210
63.000	10857.000	1534.210
65.000	10870.000	1534.080
80.000	10888.000	1534.210
63.000	10914.000	1534.210
65.000	10934.000	1534.210
64.000	10956.000	1534.210
64.000	10977.000	1534.210
64.000	11000.000	1534.340
64.000	11015.000	1534.340
64.000	11036.000	1534.340
63.000	11062.000	1534.210
64.000	11089.000	1534.340
65.000	11116.000	1534.340
63.000	11140.000	1534.210
80.000	11162.000	1534.210
64.000	11191.000	1534.340
64.000	11220.000	1534.340
65.000	11246.000	1534.210
63.000	11276.000	1534.210
64.000	11304.000	1534.340
64.000	11335.000	1534.210
65.000	11361.000	1534.210
63.000	11389.000	1534.210
64.000	11421.000	1534.340
64.000	11460.000	1534.210
64.000	11496.000	1534.210
80.000	11528.000	1534.340
64.000	11560.000	1534.210
64.000	11601.000	1534.340
64.000	11646.000	1534.210
64.000	11692.000	1534.210
63.000	11732.000	1534.340
65.000	11772.000	1534.210
64.000	11822.000	1534.340
63.000	11871.000	1534.210
64.000	11915.000	1534.210
65.000	11963.000	1534.210
63.000	12021.000	1534.210
81.000	12070.000	1534.340
63.000	12115.000	1534.470
65.000	12167.000	1534.720
64.000	12224.000	1535.230
63.000	12272.000	1535.490
65.000	12334.000	1536.000
64.000	12401.000	1536.770
63.000	12461.000	1537.410
65.000	12434.000	1537.020
63.000	12364.000	1536.390
64.000	12304.000	1535.620
65.000	12246.000	1535.230
79.000	12191.000	1534.850
64.000	12144.000	1534.600
64.000	12098.000	1534.470
64.000	12041.000	1534.340
64.000	11992.000	1534.340
64.000	11942.000	1534.340
64.000	11899.000	1534.340
63.000	11846.000	1534.470
64.000	11797.000	1534.470
65.000	11762.000	1534.340
64.000	11710.000	1534.340
63.000	11671.000	1534.470
80.000	11627.000	1534.340
65.000	11586.000	1534.340
63.000	11547.000	1534.210
65.000	11510.000	1534.340
64.000	11481.000	1534.340
64.000	11442.000	1534.340
64.000	11410.000	1534.340
63.000	11382.000	1534.340
64.000	11347.000	1534.340
64.000	11316.000	1534.340
64.000	11292.000	1534.340
64.000	11259.000	1534.210
80.000	11240.000	1534.340
64.000	11207.000	1534.210
64.000	11183.000	1534.210
64.000	11158.000	1534.340
64.000	11130.000	1534.340
64.000	11105.000	1534.340
64.000	11080.000	1534.340
64.000	11053.000	1534.210
64.000	11032.000	1534.340
64.000	11010.000	1534.340
64.000	10992.000	1534.340
64.000	10968.000	1534.210
80.000	10945.000	1534.340
64.000	10933.000	1534.340
64.000	10910.000	1534.340
64.000	10893.000	1534.340
64.000	10872.000	1534.340
64.000	10853.000	1534.210
64.000	10835.000	1534.210
64.000	10821.000	1534.340
63.000	10803.000	1534.340
65.000	10787.000	1534.210
64.000	10772.000	1534.340
63.000	10758.000	1534.210
80.000	10745.000	1534.210
64.000	10729.000	1534.210
65.000	10715.000	1534.340
64.000	10719.000	1534.340
63.000	10724.000	1534.210
65.000	10720.000	1534.210
63.000	10723.000	1534.210
64.000	10721.000	1534.340
64.000	10722.000	1534.340
64.000	10724.000	1534.210
64.000	10722.000	1534.340
64.000	10724.000	1534.340
80.000	10719.000	1534.340
64.000	10720.000	1534.210
64.000	10721.000	1534.340
64.000	10720.000	1534.340
64.000	10725.000	1534.340
64.000	10725.000	1534.210
63.000	10720.000	1534.340
64.000	10723.000	1534.340
64.000	10723.000	1534.340
65.000	10722.000	1534.210
63.000	10722.000	1534.340
65.000	10723.000	1534.210
79.000	10720.000	1534.340
65.000	10720.000	1534.210
64.000	10720.000	1534.340
63.000	10721.000	1534.080
64.000	10719.000	1534.210
64.000	10720.000	1534.210
65.000	10725.000	1534.340
63.000	10723.000	1534.340
64.000	10723.000	1534.210
65.000	10726.000	1534.340
63.000	10722.000	1534.340
64.000	10719.000	1534.340
80.000	10720.000	1534.210
64.000	10726.000	1534.210
64.000	10723.000	1534.340
64.000	10726.000	1534.340
63.000	10723.000	1534.210
65.000	10726.000	1534.210
64.000	10719.000	1534.340
64.000	10724.000	1534.340
64.000	10722.000	1534.340
64.000	10724.000	1534.210
63.000	10720.000	1534.340
64.000	10722.000	1534.470
65.000	10726.000	1534.340
80.000	10722.000	1534.340
64.000	10721.000	1534.340
64.000	10725.000	1534.340
63.000	10725.000	1534.340
64.000	10724.000	1534.340
64.000	10727.000	1534.340
64.000	10728.000	1534.340
65.000	10719.000	1534.340
64.000	10725.000	1534.470
64.000	10723.000	1534.340
63.000	10721.000	1534.210
64.000	10723.000	1534.340
81.000	10725.000	1534.340
63.000	10723.000	1534.340
64.000	10723.000	1534.340
64.000	10725.000	1534.340
64.000	10720.000	1534.470
64.000	10724.000	1534.340
64.000	10722.000	1534.470
64.000	10722.000	1534.210
64.000	10722.000	1534.340
64.000	10725.000	1534.340
64.000	10724.000	1534.340
64.000	10726.000	1534.210
79.000	10722.000	1534.210
65.000	10723.000	1534.210
64.000	10722.000	1534.210
64.000	10726.000	1534.210
64.000	10723.000	1534.340
63.000	10725.000	1534.340
65.000	10723.000	1534.210
64.000	10725.000	1534.340
64.000	10723.000	1534.210
63.000	10726.000	1534.340
64.000	10726.000	1534.340
64.000	10728.000	1534.340
81.000	10719.000	1534.340
64.000	10725.000	1534.210
63.000	10726.000	1534.210
65.000	10724.000	1534.340
64.000	10719.000	1534.340
63.000	10724.000	1534.210
65.000	10722.000	1534.340
63.000	10721.000	1534.210
64.000	10724.000	1534.340
64.000	10727.000	1534.340
64.000	10725.000	1534.210
64.000	10726.000	1534.340
80.000	10722.000	1534.340
64.000	10732.000	1534.340
64.000	10748.000	1534.340
64.000	10758.000	1534.340
64.000	10771.000	1534.210
64.000	10786.000	1534.340
64.000	10807.000	1534.340
64.000	10826.000	1534.340
64.000	10839.000	1534.340
63.000	10850.000	1534.210
65.000	10876.000	1534.340
63.000	10887.000	1534.340
81.000	10912.000	1534.340
63.000	10933.000	1534.340
65.000	10946.000	1534.210
63.000	10966.000	1534.340
64.000	10988.000	1534.340
64.000	11009.000	1534.210
64.000	11030.000	1534.340
64.000	11055.000	1534.340
64.000	11082.000	1534.470
65.000	11104.000	1534.210
63.000	11124.000	1534.210
65.000	11160.000	1534.340
80.000	11184.000	1534.340
63.000	11209.000	1534.340
64.000	11234.000	1534.340
65.000	11261.000	1534.340
63.000	11292.000	1534.340
64.000	11319.000	1534.470
64.000	11351.000	1534.340
64.000	11382.000	1534.340
65.000	11410.000	1534.340
63.000	11447.000	1534.340
64.000	11475.000	1534.210
64.000	11512.000	1534.340
80.000	11542.000	1534.470
64.000	11587.000	1534.340
64.000	11633.000	1534.340
64.000	11671.000	1534.340
64.000	11714.000	1534.340
64.000	11757.000	1534.340
64.000	11796.000	1534.340
63.000	11846.000	1534.340
64.000	11895.000	1534.340
64.000	11940.000	1534.340
64.000	11995.000	1534.340
65.000	12042.000	1534.340
80.000	12099.000	1534.470
64.000	12138.000	1534.720
63.000	12194.000	1534.980
64.000	12249.000	1535.360
64.000	12304.000	1535.870
65.000	12368.000	1536.510
63.000	12428.000	1537.020
65.000	12470.000	1537.410
63.000	12418.000	1536.900
64.000	12351.000	1536.130
64.000	12289.000	1535.620
64.000	12229.000	1535.110
80.000	12182.000	1534.850
64.000	12132.000	1534.600
64.000	12083.000	1534.470
64.000	12037.000	1534.470
64.000	11979.000	1534.470
64.000	11930.000	1534.340
64.000	11884.000	1534.470
64.000	11839.000	1534.340
65.000	11788.000	1534.470
63.000	11742.000	1534.340
64.000	11703.000	1534.340
64.000	11669.000	1534.340
80.000	11627.000	1534.340
64.000	11576.000	1534.470
64.000	11549.000	1534.340
63.000	11505.000	1534.340
65.000	11475.000	1534.340
63.000	11442.000	1534.340
65.000	11408.000	1534.340
63.000	11371.000	1534.340
65.000	11344.000	1534.340
64.000	11311.000	1534.340
63.000	11280.000	1534.340
65.000	11252.000	1534.340
79.000	11230.000	1534.340
65.000	11205.000	1534.470
63.000	11179.000	1534.340
64.000	11159.000	1534.340
65.000	11131.000	1534.340
64.000	11104.000	1534.210
63.000	11072.000	1534.470
64.000	11047.000	1534.340
63.000	11026.000	1534.340
65.000	11007.000	1534.340
64.000	10985.000	1534.470
64.000	10963.000	1534.210
79.000	10950.000	1534.340
65.000	10925.000	1534.340
63.000	10912.000	1534.340
64.000	10883.000	1534.470
66.000	10868.000	1534.340
62.000	10855.000	1534.340
65.000	10835.000	1534.470
64.000	10815.000	1534.340
63.000	10800.000	1534.340
64.000	10786.000	1534.470
65.000	10774.000	1534.470
64.000	10759.000	1534.470
79.000	10746.000	1534.340
65.000	10730.000	1534.340
63.000	10716.000	1534.340
64.000	10722.000	1534.340
64.000	10724.000	1534.340
65.000	10726.000	1534.470
64.000	10727.000	1534.340
63.000	10724.000	1534.340
65.000	10728.000	1534.340
63.000	10728.000	1534.340
64.000	10724.000	1534.340
64.000	10724.000	1534.340
80.000	10727.000	1534.470
64.000	10723.000	1534.340
64.000	10727.000	1534.470
64.000	10727.000	1534.340
63.000	10726.000	1534.340
65.000	10726.000	1534.470
64.000	10724.000	1534.470
63.000	10726.000	1534.340
65.000	10723.000	1534.340
63.000	10728.000	1534.340
65.000	10727.000	1534.340
64.000	10724.000	1534.340
79.000	10730.000	1534.340
64.000	10729.000	1534.210
64.000	10730.000	1534.340
64.000	10725.000	1534.340
64.000	10730.000	1534.340
64.000	10727.000	1534.340
64.000	10726.000	1534.340
65.000	10729.000	1534.470
64.000	10722.000	1534.340
63.000	10728.000	1534.210
64.000	10728.000	1534.470
64.000	10729.000	1534.340
64.000	10726.000	1534.340
80.000	10721.000	1534.210
64.000	10729.000	1534.340
65.000	10727.000	1534.340
63.000	10728.000	1534.470
64.000	10725.000	1534.470
64.000	10726.000	1534.470
64.000	10731.000	1534.340
63.000	10730.000	1534.340
65.000	10728.000	1534.340
63.000	10723.000	1534.340
65.000	10727.000	1534.340
64.000	10726.000	1534.470
79.000	10726.000	1534.340
65.000	10727.000	1534.340
63.000	10728.000	1534.340
65.000	10729.000	1534.470
64.000	10725.000	1534.470
63.000	10727.000	1534.340
65.000	10726.000	1534.470
64.000	10735.000	1534.340
64.000	10726.000	1534.340
64.000	10727.000	1534.340
63.000	10730.000	1534.340
65.000	10726.000	1534.210
79.000	10725.000	1534.340
65.000	10732.000	1534.470
63.000	10728.000	1534.470
65.000	10729.000	1534.340
63.000	10729.000	1534.470
64.000	10729.000	1534.470
64.000	10727.000	1534.340
64.000	10731.000	1534.340
64.000	10727.000	1534.470
64.000	10725.000	1534.470
64.000	10727.000	1534.470
64.000	10729.000	1534.340
80.000	10728.000	1534.470
63.000	10727.000	1534.340
65.000	10729.000	1534.340
64.000	10725.000	1534.470
64.000	10728.000	1534.340
64.000	10732.000	1534.340
64.000	10728.000	1534.340
64.000	10730.000	1534.340
64.000	10727.000	1534.340
63.000	10729.000	1534.470
65.000	10726.000	1534.340
63.000	10723.000	1534.340
81.000	10731.000	1534.340
63.000	10729.000	1534.340
65.000	10731.000	1534.340
64.000	10727.000	1534.340
63.000	10728.000	1534.470
65.000	10726.000	1534.340
64.000	10731.000	1534.340
63.000	10726.000	1534.470
65.000	10727.000	1534.470
63.000	10726.000	1534.340
64.000	10724.000	1534.340
65.000	10732.000	1534.340
79.000	10725.000	1534.340
64.000	10742.000	1534.470
64.000	10751.000	1534.340
64.000	10763.000	1534.340
64.000	10782.000	1534.340
63.000	10795.000	1534.340
65.000	10816.000	1534.470
64.000	10828.000	1534.340
64.000	10841.000	1534.470
64.000	10863.000	1534.470
64.000	10885.000	1534.470
64.000	10905.000	1534.470
80.000	10923.000	1534.470
64.000	10941.000	1534.470
63.000	10959.000	1534.470
65.000	10981.000	1534.470
64.000	11001.000	1534.470
63.000	11015.000	1534.470
64.000	11045.000	1534.340
64.000	11065.000	1534.340
64.000	11091.000	1534.340
65.000	11113.000	1534.340
63.000	11144.000	1534.340
64.000	11168.000	1534.340
81.000	11193.000	1534.470
63.000	11222.000	1534.340
64.000	11248.000	1534.340
64.000	11276.000	1534.470
64.000	11303.000	1534.470
64.000	11337.000	1534.340
64.000	11365.000	1534.600
64.000	11396.000	1534.340
64.000	11427.000	1534.470
64.000	11465.000	1534.340
64.000	11495.000	1534.210
64.000	11530.000	1534.340
80.000	11569.000	1534.470
64.000	11608.000	1534.340
63.000	11646.000	1534.340
65.000	11690.000	1534.340
64.000	11734.000	1534.340
64.000	11775.000	1534.340
63.000	11820.000	1534.340
64.000	11866.000	1534.470
65.000	11917.000	1534.340
65.000	11964.000	1534.340
62.000	12012.000	1534.340
65.000	12070.000	1534.470
80.000	12115.000	1534.600
63.000	12164.000	1534.850
64.000	12215.000	1535.110
64.000	12271.000	1535.490
65.000	12329.000	1536.000
64.000	12395.000	1536.770
63.000	12462.000	1537.410
65.000	12482.000	1537.410
63.000	12412.000	1536.770
64.000	12339.000	1536.130
64.000	12285.000	1535.620
64.000	12232.000	1535.110
80.000	12173.000	1534.980
65.000	12138.000	1534.600
63.000	12080.000	1534.470
65.000	12029.000	1534.600
63.000	11978.000	1534.470
64.000	11932.000	1534.600
64.000	11881.000	1534.470
64.000	11839.000	1534.470
63.000	11789.000	1534.470
64.000	11748.000	1534.340
65.000	11701.000	1534.470
64.000	11658.000	1534.470
80.000	11614.000	1534.470
64.000	11579.000	1534.470
64.000	11537.000	1534.470
63.000	11509.000	1534.340
64.000	11473.000	1534.470
65.000	11437.000	1534.470
63.000	11405.000	1534.470
64.000	11375.000	1534.470
64.000	11339.000	1534.470
65.000	11317.000	1534.470
63.000	11286.000	1534.340
65.000	11257.000	1534.340
80.000	11229.000	1534.340
63.000	11197.000	1534.340
65.000	11173.000	1534.470
63.000	11149.000	1534.470
65.000	11126.000	1534.340
63.000	11106.000	1534.340
65.000	11080.000	1534.340
63.000	11053.000	1534.470
64.000	11034.000	1534.600
64.000	11008.000	1534.470
64.000	10992.000	1534.470
64.000	10967.000	1534.470
80.000	10950.000	1534.470
64.000	10927.000	1534.470
64.000	10907.000	1534.340
64.000	10889.000	1534.340
64.000	10869.000	1534.340
63.000	10855.000	1534.340
64.000	10840.000	1534.340
65.000	10819.000	1534.470
63.000	10798.000	1534.470
65.000	10787.000	1534.340
64.000	10769.000	1534.470
63.000	10761.000	1534.340
65.000	10747.000	1534.470
80.000	10730.000	1534.470
64.000	10720.000	1534.600
64.000	10722.000	1534.470
64.000	10729.000	1534.340
63.000	10731.000	1534.340
65.000	10727.000	1534.470
63.000	10731.000	1534.470
64.000	10736.000	1534.340
64.000	10731.000	1534.340
65.000	10729.000	1534.470
63.000	10730.000	1534.470
65.000	10731.000	1534.470
79.000	10731.000	1534.470
64.000	10727.000	1534.470
64.000	10728.000	1534.470
64.000	10725.000	1534.470
64.000	10727.000	1534.600
64.000	10728.000	1534.470
64.000	10732.000	1534.470
64.000	10732.000	1534.340
64.000	10727.000	1534.340
64.000	10733.000	1534.340
64.000	10729.000	1534.340
64.000	10727.000	1534.340
80.000	10732.000	1534.470
64.000	10732.000	1534.340
64.000	10734.000	1534.340
63.000	10730.000	1534.470
65.000	10728.000	1534.340
63.000	10732.000	1534.470
64.000	10732.000	1534.470
64.000	10731.000	1534.340
64.000	10731.000	1534.340
65.000	10729.000	1534.470
63.000	10728.000	1534.470
64.000	10728.000	1534.470
80.000	10730.000	1534.600
64.000	10734.000	1534.340
64.000	10724.000	1534.470
64.000	10727.000	1534.470
65.000	10731.000	1534.470
63.000	10731.000	1534.470
64.000	10730.000	1534.470
64.000	10730.000	1534.470
64.000	10729.000	1534.470
64.000	10732.000	1534.470
64.000	10728.000	1534.470
64.000	10727.000	1534.340
79.000	10730.000	1534.470
65.000	10729.000	1534.470
64.000	10728.000	1534.470
64.000	10729.000	1534.340
63.000	10729.000	1534.340
65.000	10729.000	1534.470
64.000	10730.000	1534.470
64.000	10729.000	1534.470
64.000	10729.000	1534.470
63.000	10727.000	1534.340
64.000	10732.000	1534.340
64.000	10729.000	1534.340
81.000	10728.000	1534.470
64.000	10727.000	1534.470
63.000	10727.000	1534.470
64.000	10731.000	1534.470
64.000	10732.000	1534.470
64.000	10727.000	1534.470
64.000	10728.000	1534.470
65.000	10729.000	1534.470
63.000	10734.000	1534.470
64.000	10733.000	1534.470
64.000	10733.000	1534.470
64.000	10729.000	1534.340
80.000	10732.000	1534.470
64.000	10729.000	1534.470
64.000	10733.000	1534.340
64.000	10727.000	1534.340
64.000	10731.000	1534.470
64.000	10730.000	1534.340
64.000	10729.000	1534.470
64.000	10728.000	1534.340
64.000	10730.000	1534.470
64.000	10730.000	1534.600
64.000	10732.000	1534.470
64.000	10731.000	1534.470
79.000	10725.000	1534.470
65.000	10732.000	1534.340
63.000	10729.000	1534.340
65.000	10733.000	1534.340
63.000	10723.000	1534.470
65.000	10727.000	1534.340
63.000	10732.000	1534.470
64.000	10731.000	1534.470
64.000	10732.000	1534.470
65.000	10728.000	1534.470
64.000	10731.000	1534.470
63.000	10731.000	1534.470
81.000	10733.000	1534.470
63.000	10744.000	1534.470
65.000	10754.000	1534.340
63.000	10773.000	1534.470
64.000	10786.000	1534.470
64.000	10805.000	1534.340
64.000	10817.000	1534.470
64.000	10833.000	1534.470
64.000	10849.000	1534.470
64.000	10872.000	1534.340
64.000	10888.000	1534.340
64.000	10906.000	1534.470
80.000	10920.000	1534.470
65.000	10943.000	1534.340
63.000	10963.000	1534.470
64.000	10985.000	1534.470
63.000	11001.000	1534.340
65.000	11029.000	1534.470
64.000	11047.000	1534.600
64.000	11072.000	1534.600
64.000	11096.000	1534.340
63.000	11120.000	1534.470
65.000	11147.000	1534.470
64.000	11172.000	1534.470
79.000	11202.000	1534.470
65.000	11227.000	1534.340
63.000	11253.000	1534.600
64.000	11281.000	1534.470
64.000	11307.000	1534.340
64.000	11334.000	1534.470
64.000	11374.000	1534.340
64.000	11405.000	1534.470
64.000	11432.000	1534.340
64.000	11468.000	1534.470
63.000	11502.000	1534.470
65.000	11537.000	1534.470
80.000	11576.000	1534.470
64.000	11615.000	1534.470
64.000	11654.000	1534.470
63.000	11702.000	1534.470
64.000	11737.000	1534.470
65.000	11790.000	1534.470
63.000	11824.000	1534.470
65.000	11879.000	1534.470
63.000	11922.000	1534.470
64.000	11974.000	1534.470
65.000	12023.000	1534.470
64.000	12079.000	1534.470
80.000	12119.000	1534.720
63.000	12172.000	1534.850
64.000	12226.000	1535.110
64.000	12277.000	1535.620
64.000	12343.000	1536.130
64.000	12402.000	1536.770
64.000	12472.000	1537.660
65.000	12466.000	1537.410
64.000	12390.000	1536.510
63.000	12328.000	1535.870
65.000	12271.000	1535.490
63.000	12220.000	1535.110
80.000	12168.000	1534.850
65.000	12126.000	1534.720
63.000	12072.000	1534.600
64.000	12021.000	1534.470
64.000	11968.000	1534.470
64.000	11916.000	1534.600
64.000	11876.000	1534.470
64.000	11826.000	1534.470
63.000	11775.000	1534.340
64.000	11739.000	1534.470
65.000	11694.000	1534.600
64.000	11655.000	1534.470
80.000	11609.000	1534.470
64.000	11570.000	1534.470
63.000	11540.000	1534.470
65.000	11498.000	1534.470
63.000	11468.000	1534.470
64.000	11433.000	1534.470
65.000	11397.000	1534.470
63.000	11366.000	1534.600
65.000	11337.000	1534.340
64.000	11304.000	1534.470
63.000	11274.000	1534.470
64.000	11255.000	1534.470
80.000	11221.000	1534.470
64.000	11194.000	1534.470
64.000	11171.000	1534.340
64.000	11150.000	1534.470
65.000	11116.000	1534.470
63.000	11101.000	1534.470
64.000	11068.000	1534.470
64.000	11049.000	1534.470
64.000	11026.000	1534.470
64.000	11002.000	1534.470
64.000	10985.000	1534.470
64.000	10967.000	1534.470
80.000	10948.000	1534.600
63.000	10926.000	1534.600
65.000	10905.000	1534.600
64.000	10885.000	1534.470
63.000	10868.000	1534.470
65.000	10854.000	1534.470
64.000	10838.000	1534.470
64.000	10818.000	1534.470
63.000	10801.000	1534.470
65.000	10790.000	1534.470
64.000	10775.000	1534.470
64.000	10760.000	1534.470
63.000	10741.000	1534.470
81.000	10731.000	1534.470
64.000	10723.000	1534.340
63.000	10729.000	1534.600
65.000	10732.000	1534.470
63.000	10734.000	1534.470
64.000	10730.000	1534.470
64.000	10730.000	1534.470
65.000	10735.000	1534.470
63.000	10730.000	1534.470
64.000	10733.000	1534.340
64.000	10730.000	1534.470
64.000	10733.000	1534.470
80.000	10731.000	1534.470
64.000	10729.000	1534.600
65.000	10736.000	1534.600
63.000	10733.000	1534.470
64.000	10727.000	1534.470
64.000	10733.000	1534.470
65.000	10730.000	1534.470
63.000	10732.000	1534.470
64.000	10739.000	1534.470
64.000	10734.000	1534.470
63.000	10730.000	1534.470
65.000	10733.000	1534.470
80.000	10733.000	1534.470
63.000	10733.000	1534.600
65.000	10736.000	1534.470
63.000	10731.000	1534.470
65.000	10732.000	1534.470
64.000	10733.000	1534.470
63.000	10730.000	1534.340
65.000	10736.000	1534.600
63.000	10731.000	1534.470
64.000	10732.000	1534.470
64.000	10732.000	1534.470
64.000	10731.000	1534.470
81.000	10735.000	1534.600
63.000	10732.000	1534.600
64.000	10734.000	1534.470
64.000	10733.000	1534.470
64.000	10731.000	1534.600
64.000	10738.000	1534.470
64.000	10741.000	1534.470
64.000	10735.000	1534.470
64.000	10733.000	1534.470
64.000	10733.000	1534.470
64.000	10730.000	1534.600
63.000	10734.000	1534.340
81.000	10736.000	1534.470
63.000	10732.000	1534.470
65.000	10730.000	1534.470
64.000	10733.000	1534.600
64.000	10736.000	1534.600
64.000	10731.000	1534.600
65.000	10734.000	1534.470
62.000	10728.000	1534.470
65.000	10735.000	1534.470
63.000	10738.000	1534.470
64.000	10736.000	1534.600
65.000	10730.000	1534.600
80.000	10732.000	1534.470
63.000	10734.000	1534.470
64.000	10737.000	1534.600
64.000	10729.000	1534.470
65.000	10733.000	1534.470
63.000	10734.000	1534.470
64.000	10735.000	1534.600
64.000	10731.000	1534.600
64.000	10736.000	1534.470
64.000	10732.000	1534.340
64.000	10732.000	1534.470
64.000	10730.000	1534.600
80.000	10728.000	1534.470
64.000	10731.000	1534.600
64.000	10733.000	1534.470
64.000	10731.000	1534.470
64.000	10734.000	1534.470
63.000	10734.000	1534.600
65.000	10734.000	1534.600
64.000	10731.000	1534.600
64.000	10735.000	1534.470
64.000	10730.000	1534.470
64.000	10735.000	1534.470
64.000	10735.000	1534.600
80.000	10731.000	1534.470
64.000	10734.000	1534.470
64.000	10740.000	1534.470
63.000	10739.000	1534.470
65.000	10733.000	1534.470
64.000	10731.000	1534.470
63.000	10733.000	1534.600
64.000	10735.000	1534.600
64.000	10730.000	1534.470
64.000	10729.000	1534.600
64.000	10735.000	1534.600
65.000	10740.000	1534.600
79.000	10732.000	1534.600
64.000	10748.000	1534.470
64.000	10761.000	1534.470
64.000	10775.000	1534.470
64.000	10791.000	1534.470
64.000	10805.000	1534.470
64.000	10820.000	1534.470
64.000	10837.000	1534.600
64.000	10858.000	1534.600
64.000	10872.000	1534.600
63.000	10895.000	1534.470
64.000	10910.000	1534.470
81.000	10927.000	1534.600
63.000	10949.000	1534.470
64.000	10965.000	1534.470
65.000	10986.000	1534.470
64.000	11008.000	1534.470
64.000	11028.000	1534.600
64.000	11056.000	1534.470
63.000	11079.000	1534.470
64.000	11104.000	1534.470
65.000	11131.000	1534.470
64.000	11153.000	1534.600
64.000	11180.000	1534.470
80.000	11203.000	1534.600
63.000	11233.000	1534.470
64.000	11257.000	1534.470
65.000	11288.000	1534.470
63.000	11316.000	1534.470
65.000	11346.000	1534.470
63.000	11374.000	1534.470
64.000	11406.000	1534.470
64.000	11441.000	1534.600
64.000	11472.000	1534.600
64.000	11505.000	1534.470
63.000	11541.000	1534.600
81.000	11585.000	1534.470
64.000	11625.000	1534.470
63.000	11659.000	1534.470
66.000	11709.000	1534.470
62.000	11746.000	1534.470
65.000	11790.000	1534.600
64.000	11833.000	1534.470
64.000	11887.000	1534.470
64.000	11925.000	1534.470
64.000	11982.000	1534.470
64.000	12033.000	1534.470
64.000	12088.000	1534.600
80.000	12130.000	1534.720
63.000	12186.000	1534.980
65.000	12237.000	1535.230
63.000	12289.000	1535.750
65.000	12350.000	1536.390
64.000	12417.000	1536.900
63.000	12483.000	1537.540
65.000	12463.000	1537.410
63.000	12395.000	1536.640
64.000	12329.000	1536.000
64.000	12272.000	1535.620
64.000	12222.000	1535.110
80.000	12162.000	1534.850
64.000	12126.000	1534.720
64.000	12070.000	1534.600
64.000	12019.000	1534.470
64.000	11968.000	1534.720
64.000	11917.000	1534.600
64.000	11877.000	1534.600
64.000	11829.000	1534.600
64.000	11781.000	1534.470
64.000	11738.000	1534.470
64.000	11696.000	1534.470
64.000	11659.000	1534.600
80.000	11615.000	1534.470
63.000	11571.000	1534.470
65.000	11532.000	1534.470
64.000	11501.000	1534.600
64.000	11462.000	1534.600
63.000	11431.000	1534.470
65.000	11401.000	1534.600
63.000	11366.000	1534.600
64.000	11336.000	1534.470
64.000	11310.000	1534.470
64.000	11276.000	1534.470
65.000	11258.000	1534.600
63.000	11225.000	1534.470
80.000	11199.000	1534.470
65.000	11167.000	1534.470
63.000	11146.000	1534.600
64.000	11125.000	1534.600
64.000	11097.000	1534.470
64.000	11074.000	1534.470
64.000	11053.000	1534.470
64.000	11028.000	1534.600
64.000	11004.000	1534.470
64.000	10987.000	1534.470
64.000	10968.000	1534.470
64.000	10945.000	1534.600
80.000	10927.000	1534.470
64.000	10909.000	1534.470
64.000	10890.000	1534.600
64.000	10863.000	1534.470
63.000	10848.000	1534.470
64.000	10835.000	1534.600
65.000	10814.000	1534.600
64.000	10802.000	1534.600
64.000	10788.000	1534.600
63.000	10776.000	1534.600
64.000	10756.000	1534.600
65.000	10745.000	1534.470
80.000	10734.000	1534.470
64.000	10723.000	1534.470
63.000	10736.000	1534.600
64.000	10736.000	1534.600
64.000	10736.000	1534.600
65.000	10738.000	1534.470
64.000	10732.000	1534.600
63.000	10734.000	1534.600
64.000	10736.000	1534.600
64.000	10735.000	1534.470
64.000	10733.000	1534.600
64.000	10737.000	1534.600
80.000	10737.000	1534.470
64.000	10732.000	1534.470
64.000	10738.000	1534.470
63.000	10731.000	1534.470
65.000	10733.000	1534.600
64.000	10738.000	1534.600
63.000	10736.000	1534.600
64.000	10734.000	1534.470
65.000	10736.000	1534.600
63.000	10737.000	1534.470
65.000	10738.000	1534.470
63.000	10735.000	1534.470
80.000	10735.000	1534.470
65.000	10735.000	1534.470
63.000	10733.000	1534.470
64.000	10734.000	1534.600
65.000	10742.000	1534.600
64.000	10728.000	1534.470
64.000	10741.000	1534.600
64.000	10733.000	1534.470
63.000	10737.000	1534.600
64.000	10737.000	1534.470
64.000	10736.000	1534.470
65.000	10734.000	1534.470
79.000	10734.000	1534.600
64.000	10737.000	1534.470
64.000	10735.000	1534.600
64.000	10740.000	1534.470
65.000	10740.000	1534.470
63.000	10737.000	1534.470
64.000	10735.000	1534.600
64.000	10737.000	1534.600
64.000	10738.000	1534.600
64.000	10734.000	1534.600
64.000	10735.000	1534.600
63.000	10737.000	1534.470
81.000	10739.000	1534.600
63.000	10733.000	1534.600
65.000	10736.000	1534.600
64.000	10739.000	1534.470
63.000	10738.000	1534.470
65.000	10736.000	1534.600
64.000	10736.000	1534.600
64.000	10737.000	1534.600
64.000	10743.000	1534.600
64.000	10737.000	1534.470
64.000	10741.000	1534.600
63.000	10741.000	1534.600
80.000	10740.000	1534.470
65.000	10743.000	1534.470
64.000	10735.000	1534.600
63.000	10734.000	1534.470
64.000	10739.000	1534.470
64.000	10735.000	1534.600
65.000	10741.000	1534.470
63.000	10734.000	1534.470
64.000	10740.000	1534.470
65.000	10735.000	1534.470
63.000	10736.000	1534.470
64.000	10732.000	1534.600
80.000	10739.000	1534.600
64.000	10737.000	1534.600
64.000	10737.000	1534.470
64.000	10738.000	1534.470
64.000	10737.000	1534.470
63.000	10735.000	1534.470
65.000	10737.000	1534.470
64.000	10733.000	1534.470
63.000	10738.000	1534.470
65.000	10733.000	1534.600
64.000	10733.000	1534.600
63.000	10735.000	1534.470
81.000	10739.000	1534.600
63.000	10735.000	1534.470
65.000	10734.000	1534.600
63.000	10735.000	1534.600
64.000	10738.000	1534.600
64.000	10737.000	1534.600
65.000	10737.000	1534.600
64.000	10743.000	1534.470
64.000	10734.000	1534.600
64.000	10737.000	1534.600
63.000	10735.000	1534.470
65.000	10742.000	1534.600
79.000	10745.000	1534.600
64.000	10757.000	1534.600
64.000	10772.000	1534.470
64.000	10781.000	1534.600
64.000	10801.000	1534.600
64.000	10812.000	1534.600
64.000	10828.000	1534.600
64.000	10845.000	1534.600
65.000	10867.000	1534.470
63.000	10875.000	1534.470
64.000	10898.000	1534.600
64.000	10918.000	1534.470
80.000	10936.000	1534.720
63.000	10959.000	1534.470
65.000	10982.000	1534.470
63.000	10997.000	1534.600
65.000	11016.000	1534.600
64.000	11037.000	1534.600
64.000	11059.000	1534.600
64.000	11084.000	1534.470
64.000	11111.000	1534.470
63.000	11136.000	1534.600
64.000	11163.000	1534.600
65.000	11189.000	1534.600
79.000	11213.000	1534.600
64.000	11243.000	1534.720
65.000	11270.000	1534.470
64.000	11298.000	1534.600
63.000	11324.000	1534.470
65.000	11356.000	1534.600
64.000	11385.000	1534.600
63.000	11419.000	1534.600
64.000	11447.000	1534.600
64.000	11485.000	1534.600
64.000	11520.000	1534.470
64.000	11559.000	1534.600
80.000	11592.000	1534.600
64.000	11633.000	1534.600
64.000	11679.000	1534.470
64.000	11716.000	1534.470
64.000	11765.000	1534.470
64.000	11806.000	1534.470
64.000	11857.000	1534.600
64.000	11898.000	1534.470
63.000	11949.000	1534.600
65.000	11999.000	1534.600
64.000	12050.000	1534.600
63.000	12104.000	1534.720
65.000	12147.000	1534.720
80.000	12202.000	1534.980
64.000	12254.000	1535.490
64.000	12311.000	1535.870
64.000	12368.000	1536.640
64.000	12431.000	1537.150
63.000	12493.000	1537.790
64.000	12452.000	1537.280
65.000	12379.000	1536.510
64.000	12320.000	1535.870
64.000	12262.000	1535.490
63.000	12214.000	1535.110
64.000	12158.000	1534.980
80.000	12117.000	1534.600
64.000	12069.000	1534.720
64.000	12007.000	1534.600
64.000	11962.000	1534.720
64.000	11912.000	1534.600
64.000	11861.000	1534.600
64.000	11820.000	1534.600
64.000	11773.000	1534.600
64.000	11732.000	1534.470
64.000	11687.000	1534.600
64.000	11649.000	1534.600
64.000	11600.000	1534.720
80.000	11565.000	1534.600
63.000	11530.000	1534.720
65.000	11496.000	1534.600
64.000	11462.000	1534.600
64.000	11428.000	1534.470
64.000	11399.000	1534.600
64.000	11364.000	1534.600
64.000	11336.000	1534.600
63.000	11305.000	1534.600
65.000	11281.000	1534.600
64.000	11253.000	1534.720
63.000	11217.000	1534.600
80.000	11200.000	1534.600
64.000	11173.000	1534.470
64.000	11146.000	1534.600
64.000	11118.000	1534.600
65.000	11096.000	1534.470
64.000	11068.000	1534.600
63.000	11047.000	1534.600
64.000	11027.000	1534.600
65.000	11008.000	1534.600
63.000	10984.000	1534.600
64.000	10966.000	1534.600
64.000	10939.000	1534.600
80.000	10916.000	1534.600
64.000	10901.000	1534.470
64.000	10893.000	1534.600
64.000	10870.000	1534.600
64.000	10851.000	1534.720
63.000	10836.000	1534.470
65.000	10824.000	1534.600
63.000	10808.000	1534.720
65.000	10791.000	1534.600
64.000	10769.000	1534.600
63.000	10758.000	1534.600
65.000	10744.000	1534.600
79.000	10731.000	1534.470
65.000	10727.000	1534.600
63.000	10741.000	1534.600
65.000	10738.000	1534.600
63.000	10737.000	1534.600
64.000	10737.000	1534.600
64.000	10735.000	1534.600
64.000	10737.000	1534.600
65.000	10737.000	1534.600
63.000	10738.000	1534.600
64.000	10739.000	1534.600
64.000	10739.000	1534.600
80.000	10738.000	1534.600
64.000	10737.000	1534.600
64.000	10739.000	1534.600
65.000	10740.000	1534.600
63.000	10735.000	1534.720
64.000	10738.000	1534.600
64.000	10739.000	1534.600
63.000	10735.000	1534.600
65.000	10741.000	1534.600
65.000	10738.000	1534.600
63.000	10737.000	1534.600
63.000	10738.000	1534.600
81.000	10742.000	1534.470
64.000	10738.000	1534.600
64.000	10740.000	1534.600
64.000	10737.000	1534.600
64.000	10739.000	1534.600
63.000	10738.000	1534.600
64.000	10740.000	1534.600
65.000	10740.000	1534.600
64.000	10740.000	1534.600
64.000	10743.000	1534.600
64.000	10736.000	1534.600
63.000	10741.000	1534.470
80.000	10743.000	1534.600
65.000	10743.000	1534.470
64.000	10742.000	1534.470
64.000	10742.000	1534.470
63.000	10739.000	1534.470
64.000	10740.000	1534.600
64.000	10738.000	1534.600
64.000	10736.000	1534.470
65.000	10739.000	1534.720
63.000	10739.000	1534.600
63.000	10744.000	1534.720
65.000	10738.000	1534.600
80.000	10736.000	1534.720
64.000	10739.000	1534.600
64.000	10742.000	1534.470
64.000	10741.000	1534.600
63.000	10742.000	1534.600
65.000	10740.000	1534.600
64.000	10741.000	1534.600
63.000	10738.000	1534.600
64.000	10738.000	1534.600
64.000	10743.000	1534.470
65.000	10741.000	1534.600
63.000	10735.000	1534.600
81.000	10739.000	1534.600
63.000	10741.000	1534.470
64.000	10743.000	1534.600
64.000	10745.000	1534.600
65.000	10738.000	1534.600
63.000	10738.000	1534.600
64.000	10743.000	1534.600
64.000	10738.000	1534.600
65.000	10735.000	1534.600
63.000	10740.000	1534.600
65.000	10742.000	1534.720
63.000	10739.000	1534.600
81.000	10741.000	1534.600
63.000	10742.000	1534.600
64.000	10743.000	1534.600
64.000	10738.000	1534.600
64.000	10739.000	1534.470
64.000	10742.000	1534.600
64.000	10739.000	1534.600
64.000	10739.000	1534.470
64.000	10741.000	1534.600
64.000	10740.000	1534.600
64.000	10737.000	1534.470
64.000	10740.000	1534.600
80.000	10740.000	1534.600
63.000	10739.000	1534.600
65.000	10745.000	1534.720
63.000	10739.000	1534.600
65.000	10740.000	1534.600
64.000	10746.000	1534.720
63.000	10740.000	1534.600
65.000	10743.000	1534.600
64.000	10742.000	1534.600
63.000	10740.000	1534.470
65.000	10741.000	1534.600
63.000	10737.000	1534.600
80.000	10742.000	1534.600
64.000	10738.000	1534.600
64.000	10737.000	1534.600
65.000	10739.000	1534.600
63.000	10742.000	1534.720
64.000	10735.000	1534.720
64.000	10738.000	1534.600
64.000	10744.000	1534.720
64.000	10743.000	1534.600
64.000	10741.000	1534.600
64.000	10741.000	1534.600
64.000	10745.000	1534.600
80.000	10741.000	1534.720
63.000	10743.000	1534.600
65.000	10742.000	1534.600
64.000	10742.000	1534.600
64.000	10740.000	1534.720
64.000	10741.000	1534.600
64.000	10740.000	1534.600
64.000	10738.000	1534.600
64.000	10736.000	1534.600
64.000	10742.000	1534.600
64.000	10741.000	1534.600
64.000	10738.000	1534.600
79.000	10739.000	1534.600
64.000	10738.000	1534.600
64.000	10739.000	1534.470
64.000	10740.000	1534.600
65.000	10738.000	1534.600
63.000	10742.000	1534.600
65.000	10740.000	1534.600
63.000	10748.000	1534.600
64.000	10735.000	1534.600
64.000	10740.000	1534.600
64.000	10741.000	1534.470
64.000	10737.000	1534.720
65.000	10737.000	1534.720
79.000	10739.000	1534.720
64.000	10741.000	1534.720
64.000	10739.000	1534.720
65.000	10741.000	1534.600
63.000	10741.000	1534.720
64.000	10741.000	1534.600
64.000	10741.000	1534.720
64.000	10742.000	1534.600
64.000	10741.000	1534.600
63.000	10742.000	1534.600
64.000	10742.000	1534.470
64.000	10741.000	1534.600
80.000	10740.000	1534.600
64.000	10745.000	1534.720
65.000	10739.000	1534.600
64.000	10747.000	1534.600
64.000	10740.000	1534.600
64.000	10741.000	1534.720
63.000	10742.000	1534.600
65.000	10744.000	1534.720
64.000	10743.000	1534.720
63.000	10742.000	1534.720
64.000	10740.000	1534.600
64.000	10740.000	1534.600
81.000	10740.000	1534.600
64.000	10740.000	1534.600
63.000	10743.000	1534.600
64.000	10742.000	1534.720
64.000	10746.000	1534.600
65.000	10742.000	1534.600
63.000	10740.000	1534.600
65.000	10741.000	1534.600
63.000	10741.000	1534.600
64.000	10740.000	1534.720
64.000	10744.000	1534.600
64.000	10742.000	1534.600
80.000	10741.000	1534.600
64.000	10742.000	1534.720
64.000	10746.000	1534.720
63.000	10742.000	1534.720
64.000	10739.000	1534.720
64.000	10736.000	1534.600
64.000	10740.000	1534.600
65.000	10742.000	1534.600
63.000	10744.000	1534.600
64.000	10742.000	1534.600
64.000	10744.000	1534.600
65.000	10740.000	1534.600
79.000	10741.000	1534.600
64.000	10737.000	1534.600
65.000	10742.000	1534.600
64.000	10741.000	1534.600
63.000	10742.000	1534.600
64.000	10742.000	1534.600
65.000	10742.000	1534.600
63.000	10740.000	1534.600
64.000	10745.000	1534.720
64.000	10739.000	1534.600
64.000	10740.000	1534.720
65.000	10740.000	1534.470
79.000	10741.000	1534.600
64.000	10742.000	1534.600
64.000	10742.000	1534.720
63.000	10746.000	1534.720
65.000	10744.000	1534.600
64.000	10740.000	1534.600
64.000	10742.000	1534.600
64.000	10743.000	1534.600
63.000	10739.000	1534.720
65.000	10738.000	1534.720
64.000	10740.000	1534.720
64.000	10739.000	1534.720
80.000	10744.000	1534.600
63.000	10740.000	1534.600
64.000	10740.000	1534.720
64.000	10741.000	1534.720
65.000	10739.000	1534.600
64.000	10745.000	1534.600
64.000	10739.000	1534.600
63.000	10747.000	1534.720
64.000	10744.000	1534.720
64.000	10740.000	1534.600
64.000	10741.000	1534.600
65.000	10742.000	1534.720
80.000	10736.000	1534.720
63.000	10743.000	1534.720
64.000	10744.000	1534.720
64.000	10748.000	1534.600
64.000	10742.000	1534.600
64.000	10739.000	1534.720
64.000	10744.000	1534.600
64.000	10746.000	1534.600
63.000	10743.000	1534.600
65.000	10743.000	1534.600
64.000	10740.000	1534.470
63.000	10742.000	1534.600
81.000	10739.000	1534.600
63.000	10743.000	1534.720
64.000	10742.000	1534.600
65.000	10748.000	1534.600
64.000	10739.000	1534.600
63.000	10743.000	1534.600
65.000	10746.000	1534.600
64.000	10739.000	1534.720
64.000	10741.000	1534.600
64.000	10746.000	1534.600
64.000	10746.000	1534.720
64.000	10743.000	1534.600
79.000	10741.000	1534.600
64.000	10746.000	1534.600
64.000	10740.000	1534.600
64.000	10745.000	1534.720
65.000	10748.000	1534.720
64.000	10741.000	1534.600
63.000	10745.000	1534.720
64.000	10744.000	1534.600
65.000	10744.000	1534.720
63.000	10742.000	1534.720
64.000	10741.000	1534.600
64.000	10745.000	1534.720
80.000	10740.000	1534.600
64.000	10742.000	1534.600
65.000	10740.000	1534.600
63.000	10747.000	1534.720
64.000	10742.000	1534.470
64.000	10743.000	1534.600
64.000	10747.000	1534.720
64.000	10739.000	1534.600
64.000	10739.000	1534.600
64.000	10742.000	1534.720
64.000	10746.000	1534.720
64.000	10741.000	1534.600
79.000	10742.000	1534.600
65.000	10743.000	1534.600
63.000	10743.000	1534.600
64.000	10743.000	1534.720
65.000	10740.000	1534.600
64.000	10746.000	1534.600
64.000	10743.000	1534.600
63.000	10747.000	1534.720
64.000	10743.000	1534.600
66.000	10742.000	1534.600
62.000	10744.000	1534.720
64.000	10741.000	1534.600
81.000	10743.000	1534.600
64.000	10745.000	1534.600
63.000	10741.000	1534.600
65.000	10743.000	1534.600
63.000	10743.000	1534.600
64.000	10745.000	1534.720
64.000	10746.000	1534.600
64.000	10741.000	1534.720
64.000	10745.000	1534.600
64.000	10746.000	1534.600
65.000	10740.000	1534.600
63.000	10740.000	1534.600
80.000	10746.000	1534.600
64.000	10745.000	1534.600
64.000	10742.000	1534.720
63.000	10743.000	1534.600
66.000	10746.000	1534.600
63.000	10745.000	1534.600
