Loop Time (ms)	IR (16 bit)	Force (N)
258.000	10376.000	1532.300
71.000	10374.000	1532.420
64.000	10377.000	1532.300
64.000	10378.000	1532.300
64.000	10373.000	1532.420
64.000	10373.000	1532.300
64.000	10372.000	1532.300
64.000	10379.000	1532.300
64.000	10379.000	1532.300
64.000	10374.000	1532.420
80.000	10377.000	1532.420
64.000	10374.000	1532.420
64.000	10375.000	1532.300
64.000	10375.000	1532.420
63.000	10379.000	1532.300
64.000	10380.000	1532.420
64.000	10378.000	1532.420
64.000	10379.000	1532.300
65.000	10373.000	1532.300
63.000	10377.000	1532.300
64.000	10375.000	1532.300
64.000	10379.000	1532.300
80.000	10376.000	1532.300
64.000	10381.000	1532.420
64.000	10379.000	1532.420
64.000	10381.000	1532.420
64.000	10379.000	1532.420
64.000	10378.000	1532.420
64.000	10380.000	1532.420
64.000	10383.000	1532.420
64.000	10382.000	1532.300
64.000	10381.000	1532.300
64.000	10389.000	1532.300
63.000	10406.000	1532.300
80.000	10426.000	1532.420
65.000	10438.000	1532.300
64.000	10450.000	1532.420
64.000	10469.000	1532.300
64.000	10481.000	1532.300
64.000	10498.000	1532.300
63.000	10515.000	1532.300
64.000	10532.000	1532.300
64.000	10545.000	1532.420
64.000	10567.000	1532.420
64.000	10582.000	1532.420
64.000	10607.000	1532.420
80.000	10618.000	1532.420
64.000	10640.000	1532.420
65.000	10661.000	1532.420
64.000	10682.000	1532.420
63.000	10702.000	1532.300
64.000	10728.000	1532.420
64.000	10746.000	1532.300
64.000	10773.000	1532.300
65.000	10796.000	1532.300
62.000	10822.000	1532.420
64.000	10851.000	1532.420
65.000	10872.000	1532.550
80.000	10901.000	1532.420
64.000	10933.000	1532.420
63.000	10960.000	1532.420
65.000	10985.000	1532.420
64.000	11013.000	1532.300
64.000	11046.000	1532.420
64.000	11083.000	1532.300
64.000	11113.000	1532.300
64.000	11155.000	1532.300
63.000	11186.000	1532.420
65.000	11224.000	1532.420
63.000	11260.000	1532.420
81.000	11300.000	1532.420
64.000	11338.000	1532.300
63.000	11380.000	1532.420
64.000	11424.000	1532.300
64.000	11467.000	1532.300
64.000	11512.000	1532.420
65.000	11554.000	1532.300
63.000	11605.000	1532.420
64.000	11656.000	1532.420
65.000	11697.000	1532.420
63.000	11747.000	1532.810
64.000	11795.000	1533.190
80.000	11849.000	1533.570
64.000	11903.000	1534.080
64.000	11965.000	1534.720
64.000	12028.000	1535.360
64.000	12113.000	1536.260
64.000	12191.000	1537.150
64.000	12284.000	1538.170
64.000	12386.000	1539.450
63.000	12493.000	1540.730
65.000	12602.000	1542.140
64.000	12699.000	1543.540
64.000	12779.000	1545.200
79.000	12801.000	1545.840
64.000	12792.000	1544.310
65.000	12689.000	1542.780
63.000	12541.000	1541.240
64.000	12417.000	1539.960
64.000	12314.000	1538.690
65.000	12224.000	1537.660
63.000	12141.000	1536.770
65.000	12063.000	1535.750
63.000	11990.000	1534.980
64.000	11932.000	1534.340
64.000	11875.000	1533.830
65.000	11825.000	1533.450
79.000	11774.000	1533.060
64.000	11740.000	1532.930
64.000	11690.000	1532.680
65.000	11639.000	1532.810
63.000	11590.000	1532.680
65.000	11543.000	1532.680
63.000	11497.000	1532.680
64.000	11450.000	1532.680
65.000	11416.000	1532.550
63.000	11374.000	1532.810
64.000	11332.000	1532.680
63.000	11295.000	1532.680
80.000	11253.000	1532.680
65.000	11219.000	1532.680
63.000	11185.000	1532.680
65.000	11146.000	1532.680
64.000	11118.000	1532.680
64.000	11087.000	1532.680
63.000	11049.000	1532.550
64.000	11017.000	1532.680
65.000	10987.000	1532.550
64.000	10960.000	1532.680
64.000	10934.000	1532.680
63.000	10909.000	1532.680
81.000	10882.000	1532.550
63.000	10857.000	1532.680
65.000	10832.000	1532.680
64.000	10804.000	1532.550
63.000	10786.000	1532.680
65.000	10760.000	1532.680
64.000	10738.000	1532.680
64.000	10713.000	1532.680
63.000	10700.000	1532.680
64.000	10678.000	1532.680
64.000	10659.000	1532.680
64.000	10638.000	1532.680
80.000	10618.000	1532.680
64.000	10606.000	1532.550
64.000	10588.000	1532.680
64.000	10568.000	1532.680
64.000	10554.000	1532.680
64.000	10540.000	1532.680
64.000	10521.000	1532.680
64.000	10504.000	1532.680
64.000	10494.000	1532.680
64.000	10475.000	1532.550
64.000	10463.000	1532.680
63.000	10451.000	1532.680
80.000	10437.000	1532.680
65.000	10421.000	1532.680
64.000	10407.000	1532.810
64.000	10407.000	1532.680
64.000	10416.000	1532.680
63.000	10418.000	1532.680
64.000	10417.000	1532.550
65.000	10416.000	1532.680
64.000	10415.000	1532.680
64.000	10418.000	1532.680
64.000	10415.000	1532.680
64.000	10417.000	1532.810
80.000	10418.000	1532.680
63.000	10419.000	1532.680
64.000	10421.000	1532.680
65.000	10420.000	1532.680
63.000	10416.000	1532.810
64.000	10420.000	1532.680
64.000	10423.000	1532.680
64.000	10421.000	1532.810
64.000	10422.000	1532.680
63.000	10420.000	1532.680
65.000	10421.000	1532.550
64.000	10420.000	1532.680
80.000	10423.000	1532.550
64.000	10421.000	1532.680
64.000	10420.000	1532.680
64.000	10424.000	1532.680
64.000	10424.000	1532.550
64.000	10423.000	1532.810
64.000	10423.000	1532.680
64.000	10422.000	1532.680
63.000	10424.000	1532.680
65.000	10422.000	1532.680
63.000	10424.000	1532.810
64.000	10424.000	1532.680
80.000	10425.000	1532.680
65.000	10425.000	1532.810
63.000	10422.000	1532.680
64.000	10425.000	1532.680
64.000	10425.000	1532.680
64.000	10426.000	1532.680
64.000	10428.000	1532.550
64.000	10429.000	1532.550
64.000	10425.000	1532.680
64.000	10427.000	1532.550
64.000	10426.000	1532.680
64.000	10426.000	1532.680
80.000	10425.000	1532.810
64.000	10425.000	1532.680
64.000	10427.000	1532.680
64.000	10427.000	1532.680
64.000	10428.000	1532.550
64.000	10426.000	1532.810
63.000	10431.000	1532.680
64.000	10430.000	1532.810
65.000	10428.000	1532.680
64.000	10428.000	1532.680
63.000	10425.000	1532.810
64.000	10426.000	1532.680
80.000	10430.000	1532.680
64.000	10430.000	1532.680
65.000	10430.000	1532.680
64.000	10426.000	1532.550
63.000	10429.000	1532.680
64.000	10431.000	1532.680
64.000	10428.000	1532.550
65.000	10428.000	1532.680
63.000	10433.000	1532.680
65.000	10431.000	1532.680
63.000	10432.000	1532.680
64.000	10428.000	1532.680
80.000	10434.000	1532.810
65.000	10429.000	1532.680
64.000	10431.000	1532.810
63.000	10429.000	1532.550
64.000	10432.000	1532.810
64.000	10429.000	1532.680
64.000	10428.000	1532.680
64.000	10432.000	1532.810
64.000	10430.000	1532.810
64.000	10433.000	1532.680
64.000	10431.000	1532.680
63.000	10431.000	1532.810
81.000	10430.000	1532.680
64.000	10431.000	1532.680
64.000	10430.000	1532.680
64.000	10434.000	1532.680
64.000	10433.000	1532.680
64.000	10434.000	1532.810
63.000	10433.000	1532.810
65.000	10432.000	1532.680
64.000	10438.000	1532.810
63.000	10434.000	1532.810
64.000	10435.000	1532.810
65.000	10430.000	1532.680
79.000	10435.000	1532.810
64.000	10432.000	1532.680
64.000	10437.000	1532.680
64.000	10451.000	1532.810
64.000	10463.000	1532.810
64.000	10476.000	1532.810
64.000	10493.000	1532.680
64.000	10508.000	1532.680
64.000	10526.000	1532.680
64.000	10540.000	1532.810
64.000	10553.000	1532.680
64.000	10573.000	1532.680
80.000	10590.000	1532.680
64.000	10607.000	1532.680
64.000	10626.000	1532.680
63.000	10641.000	1532.810
65.000	10660.000	1532.810
63.000	10681.000	1532.680
64.000	10704.000	1532.680
65.000	10717.000	1532.810
64.000	10738.000	1532.680
64.000	10763.000	1532.810
64.000	10787.000	1532.680
63.000	10806.000	1532.680
80.000	10829.000	1532.810
65.000	10856.000	1532.680
64.000	10886.000	1532.680
63.000	10910.000	1532.680
65.000	10932.000	1532.680
63.000	10962.000	1532.680
65.000	10993.000	1532.680
63.000	11023.000	1532.680
65.000	11052.000	1532.680
63.000	11086.000	1532.810
64.000	11120.000	1532.810
65.000	11154.000	1532.680
79.000	11179.000	1532.680
64.000	11217.000	1532.810
64.000	11253.000	1532.810
64.000	11286.000	1532.810
64.000	11328.000	1532.680
64.000	11368.000	1532.680
64.000	11405.000	1532.680
64.000	11448.000	1532.810
64.000	11490.000	1532.810
64.000	11540.000	1532.810
64.000	11581.000	1532.810
64.000	11633.000	1532.810
79.000	11680.000	1532.680
65.000	11726.000	1532.810
63.000	11771.000	1532.930
65.000	11823.000	1533.190
63.000	11871.000	1533.570
65.000	11928.000	1534.080
64.000	11980.000	1534.600
63.000	12041.000	1535.230
64.000	12115.000	1536.000
65.000	12191.000	1536.900
64.000	12281.000	1537.790
63.000	12369.000	1538.810
65.000	12478.000	1540.090
80.000	12589.000	1541.500
63.000	12700.000	1542.780
64.000	12796.000	1544.310
64.000	12865.000	1546.100
64.000	12873.000	1545.590
64.000	12830.000	1543.800
64.000	12679.000	1542.260
64.000	12544.000	1540.860
64.000	12434.000	1539.580
64.000	12334.000	1538.560
64.000	12253.000	1537.540
63.000	12170.000	1536.510
81.000	12094.000	1535.750
63.000	12029.000	1534.980
65.000	11966.000	1534.600
63.000	11915.000	1533.830
65.000	11858.000	1533.570
64.000	11815.000	1533.190
64.000	11768.000	1533.060
64.000	11720.000	1532.930
64.000	11674.000	1532.930
63.000	11625.000	1532.930
64.000	11574.000	1532.930
65.000	11527.000	1532.930
80.000	11485.000	1532.810
63.000	11448.000	1532.680
65.000	11405.000	1532.810
64.000	11362.000	1532.810
63.000	11324.000	1532.810
64.000	11292.000	1532.810
65.000	11251.000	1532.810
64.000	11220.000	1532.810
63.000	11186.000	1532.810
64.000	11148.000	1532.930
64.000	11122.000	1532.810
64.000	11084.000	1532.810
79.000	11053.000	1532.810
65.000	11020.000	1532.680
64.000	10992.000	1532.810
64.000	10972.000	1532.810
64.000	10944.000	1532.810
64.000	10915.000	1532.810
64.000	10888.000	1532.810
64.000	10861.000	1532.810
64.000	10841.000	1532.810
64.000	10815.000	1532.680
63.000	10792.000	1532.680
64.000	10763.000	1532.810
81.000	10746.000	1532.810
64.000	10724.000	1532.680
63.000	10705.000	1532.810
64.000	10684.000	1532.680
64.000	10669.000	1532.930
64.000	10649.000	1532.930
65.000	10628.000	1532.810
64.000	10613.000	1532.810
63.000	10596.000	1532.810
64.000	10579.000	1532.810
65.000	10560.000	1532.680
63.000	10548.000	1532.810
80.000	10528.000	1532.680
64.000	10519.000	1532.810
64.000	10505.000	1532.680
64.000	10491.000	1532.810
64.000	10476.000	1532.810
64.000	10463.000	1532.810
64.000	10449.000	1532.810
64.000	10441.000	1532.810
64.000	10444.000	1532.680
64.000	10448.000	1532.680
64.000	10447.000	1532.810
64.000	10448.000	1532.810
80.000	10451.000	1532.810
64.000	10451.000	1532.930
64.000	10453.000	1532.810
64.000	10450.000	1532.810
64.000	10451.000	1532.810
64.000	10447.000	1532.810
64.000	10452.000	1532.810
64.000	10452.000	1532.810
64.000	10450.000	1532.810
64.000	10452.000	1532.810
63.000	10447.000	1532.810
64.000	10451.000	1532.930
80.000	10451.000	1532.680
64.000	10453.000	1532.810
65.000	10451.000	1532.810
63.000	10451.000	1532.810
64.000	10450.000	1532.930
65.000	10452.000	1532.810
63.000	10453.000	1532.810
64.000	10455.000	1532.810
64.000	10451.000	1532.810
64.000	10452.000	1532.680
64.000	10452.000	1532.810
64.000	10455.000	1532.810
80.000	10455.000	1532.810
64.000	10451.000	1532.810
64.000	10453.000	1532.810
64.000	10455.000	1532.810
64.000	10456.000	1532.810
64.000	10457.000	1532.810
63.000	10450.000	1532.810
65.000	10454.000	1532.810
64.000	10453.000	1532.810
64.000	10456.000	1532.810
63.000	10458.000	1532.810
64.000	10459.000	1532.810
80.000	10453.000	1532.810
65.000	10458.000	1532.810
64.000	10454.000	1532.810
63.000	10453.000	1532.810
64.000	10453.000	1532.810
65.000	10456.000	1532.810
64.000	10455.000	1532.930
63.000	10454.000	1532.810
64.000	10457.000	1532.810
64.000	10455.000	1532.810
64.000	10455.000	1532.810
64.000	10460.000	1532.810
80.000	10463.000	1532.810
64.000	10456.000	1532.810
64.000	10457.000	1532.810
64.000	10454.000	1532.680
64.000	10456.000	1532.810
64.000	10459.000	1532.810
64.000	10454.000	1532.810
63.000	10460.000	1532.810
65.000	10458.000	1532.810
63.000	10457.000	1532.810
64.000	10460.000	1532.810
64.000	10462.000	1532.930
81.000	10456.000	1532.810
64.000	10460.000	1532.810
64.000	10456.000	1532.810
63.000	10458.000	1532.810
64.000	10461.000	1532.930
64.000	10462.000	1532.810
64.000	10460.000	1532.810
64.000	10459.000	1532.810
64.000	10458.000	1532.810
65.000	10459.000	1532.810
63.000	10458.000	1532.810
65.000	10462.000	1532.930
79.000	10460.000	1532.810
64.000	10462.000	1532.810
64.000	10459.000	1532.810
64.000	10461.000	1532.930
64.000	10459.000	1532.810
65.000	10461.000	1532.810
63.000	10456.000	1532.810
64.000	10458.000	1532.930
64.000	10459.000	1532.810
64.000	10458.000	1532.810
64.000	10464.000	1532.810
64.000	10460.000	1532.810
80.000	10464.000	1532.810
64.000	10459.000	1532.930
63.000	10465.000	1532.810
65.000	10455.000	1532.810
64.000	10457.000	1532.810
63.000	10457.000	1532.810
65.000	10465.000	1532.810
63.000	10470.000	1532.810
64.000	10479.000	1532.930
64.000	10497.000	1532.810
64.000	10510.000	1532.680
64.000	10526.000	1532.930
80.000	10541.000	1532.930
64.000	10552.000	1532.810
65.000	10572.000	1532.930
64.000	10589.000	1532.930
64.000	10606.000	1532.810
63.000	10623.000	1532.810
64.000	10640.000	1533.060
64.000	10659.000	1532.930
64.000	10676.000	1532.810
64.000	10691.000	1532.930
64.000	10716.000	1532.930
64.000	10735.000	1532.930
80.000	10755.000	1532.810
65.000	10775.000	1532.930
63.000	10798.000	1532.680
64.000	10823.000	1532.810
64.000	10847.000	1532.930
64.000	10867.000	1532.810
64.000	10896.000	1532.810
64.000	10922.000	1532.810
64.000	10952.000	1532.930
64.000	10979.000	1532.930
64.000	11001.000	1532.930
63.000	11034.000	1532.930
65.000	11064.000	1532.810
80.000	11101.000	1532.930
63.000	11126.000	1532.810
65.000	11162.000	1532.930
64.000	11193.000	1532.810
64.000	11230.000	1532.810
64.000	11261.000	1532.810
63.000	11302.000	1532.810
64.000	11331.000	1533.060
64.000	11369.000	1532.930
64.000	11412.000	1532.810
65.000	11453.000	1532.930
64.000	11486.000	1532.810
79.000	11533.000	1532.930
64.000	11582.000	1532.810
64.000	11636.000	1532.930
64.000	11674.000	1532.810
64.000	11729.000	1532.930
65.000	11779.000	1532.930
63.000	11815.000	1533.190
64.000	11866.000	1533.450
64.000	11923.000	1533.960
64.000	11980.000	1534.340
65.000	12039.000	1534.980
63.000	12107.000	1535.620
80.000	12175.000	1536.510
64.000	12256.000	1537.280
64.000	12346.000	1538.300
64.000	12444.000	1539.450
63.000	12553.000	1540.730
64.000	12670.000	1542.010
65.000	12771.000	1543.540
64.000	12868.000	1545.080
64.000	12912.000	1546.480
63.000	12906.000	1545.460
65.000	12853.000	1543.800
64.000	12698.000	1542.260
80.000	12565.000	1540.860
63.000	12456.000	1539.580
65.000	12362.000	1538.560
64.000	12277.000	1537.540
64.000	12196.000	1536.640
63.000	12122.000	1535.750
65.000	12055.000	1534.980
63.000	11995.000	1534.340
64.000	11941.000	1533.830
64.000	11884.000	1533.570
64.000	11837.000	1533.190
64.000	11799.000	1533.060
80.000	11748.000	1532.930
64.000	11700.000	1532.930
64.000	11648.000	1532.930
64.000	11600.000	1533.060
64.000	11558.000	1532.930
64.000	11508.000	1532.930
64.000	11470.000	1532.930
64.000	11425.000	1532.930
64.000	11390.000	1532.810
64.000	11356.000	1532.810
64.000	11313.000	1532.930
63.000	11276.000	1532.930
81.000	11244.000	1532.810
64.000	11210.000	1532.810
63.000	11176.000	1532.810
65.000	11142.000	1532.810
64.000	11107.000	1533.060
63.000	11082.000	1532.930
65.000	11050.000	1532.810
64.000	11015.000	1532.930
63.000	10989.000	1532.930
64.000	10962.000	1532.930
65.000	10937.000	1532.810
63.000	10913.000	1532.810
81.000	10888.000	1532.810
63.000	10861.000	1532.930
65.000	10837.000	1532.930
63.000	10817.000	1532.810
65.000	10792.000	1532.930
63.000	10769.000	1532.930
64.000	10747.000	1532.810
64.000	10728.000	1532.930
64.000	10709.000	1532.930
64.000	10688.000	1532.930
64.000	10673.000	1532.930
64.000	10652.000	1532.930
80.000	10631.000	1532.810
63.000	10622.000	1532.930
64.000	10601.000	1532.810
65.000	10588.000	1532.930
64.000	10576.000	1532.930
64.000	10555.000	1532.930
64.000	10541.000	1532.930
64.000	10528.000	1532.930
63.000	10516.000	1532.810
65.000	10502.000	1532.930
64.000	10484.000	1532.810
64.000	10473.000	1532.930
79.000	10467.000	1532.930
65.000	10473.000	1532.810
64.000	10474.000	1532.810
63.000	10476.000	1532.930
65.000	10475.000	1532.930
63.000	10478.000	1532.930
64.000	10473.000	1532.810
65.000	10473.000	1532.930
63.000	10478.000	1532.810
64.000	10473.000	1532.930
64.000	10478.000	1532.810
64.000	10479.000	1532.930
80.000	10472.000	1532.810
64.000	10479.000	1532.930
64.000	10474.000	1532.930
64.000	10478.000	1532.810
64.000	10476.000	1532.810
63.000	10476.000	1532.930
65.000	10474.000	1532.810
64.000	10478.000	1532.930
64.000	10477.000	1532.810
64.000	10480.000	1532.810
64.000	10474.000	1532.930
64.000	10476.000	1532.930
79.000	10476.000	1532.930
65.000	10480.000	1532.810
64.000	10480.000	1532.930
64.000	10480.000	1532.930
63.000	10477.000	1532.930
65.000	10476.000	1532.930
64.000	10477.000	1532.930
63.000	10479.000	1533.060
65.000	10480.000	1532.930
63.000	10476.000	1532.810
65.000	10476.000	1532.810
63.000	10480.000	1532.930
80.000	10482.000	1532.930
64.000	10481.000	1532.930
65.000	10478.000	1532.930
63.000	10480.000	1532.930
64.000	10479.000	1532.810
64.000	10480.000	1532.930
64.000	10476.000	1532.930
64.000	10478.000	1532.930
64.000	10485.000	1532.930
64.000	10479.000	1532.810
64.000	10481.000	1532.930
63.000	10481.000	1532.930
81.000	10481.000	1532.930
64.000	10483.000	1532.930
63.000	10481.000	1532.930
64.000	10480.000	1532.930
65.000	10481.000	1532.930
64.000	10482.000	1532.810
63.000	10478.000	1532.930
65.000	10476.000	1532.930
64.000	10475.000	1532.930
63.000	10482.000	1532.810
65.000	10485.000	1532.930
63.000	10484.000	1532.930
81.000	10482.000	1532.810
63.000	10483.000	1532.930
64.000	10483.000	1532.810
64.000	10481.000	1532.930
64.000	10483.000	1532.810
65.000	10486.000	1532.930
63.000	10483.000	1532.810
64.000	10482.000	1532.810
64.000	10483.000	1533.060
64.000	10477.000	1532.930
64.000	10480.000	1532.810
64.000	10482.000	1532.930
80.000	10484.000	1532.810
64.000	10485.000	1532.930
64.000	10477.000	1532.930
64.000	10483.000	1532.930
64.000	10486.000	1532.810
64.000	10486.000	1532.930
64.000	10485.000	1532.810
64.000	10486.000	1532.810
63.000	10486.000	1532.930
65.000	10486.000	1532.930
64.000	10485.000	1533.060
63.000	10486.000	1532.930
65.000	10484.000	1533.060
80.000	10487.000	1533.060
64.000	10483.000	1533.060
63.000	10483.000	1532.930
64.000	10487.000	1532.810
64.000	10486.000	1532.930
64.000	10485.000	1532.930
64.000	10485.000	1532.930
65.000	10485.000	1532.930
63.000	10486.000	1532.930
65.000	10486.000	1532.930
64.000	10488.000	1533.060
64.000	10498.000	1532.930
79.000	10513.000	1533.060
64.000	10523.000	1533.060
64.000	10538.000	1532.930
65.000	10551.000	1532.810
63.000	10564.000	1533.060
64.000	10584.000	1532.930
64.000	10599.000	1532.930
64.000	10619.000	1532.930
64.000	10633.000	1532.930
64.000	10648.000	1532.930
64.000	10668.000	1532.930
63.000	10687.000	1533.060
80.000	10702.000	1532.930
65.000	10730.000	1532.930
64.000	10739.000	1532.930
63.000	10765.000	1532.930
65.000	10785.000	1532.810
64.000	10808.000	1532.930
63.000	10830.000	1532.930
65.000	10855.000	1532.930
63.000	10878.000	1532.680
64.000	10903.000	1532.930
65.000	10928.000	1532.930
63.000	10953.000	1533.060
80.000	10979.000	1532.930
65.000	11010.000	1532.930
63.000	11036.000	1532.930
64.000	11065.000	1533.060
64.000	11092.000	1533.060
64.000	11130.000	1532.930
65.000	11162.000	1532.930
63.000	11192.000	1533.060
64.000	11227.000	1532.930
64.000	11257.000	1533.060
64.000	11296.000	1532.930
64.000	11331.000	1532.930
80.000	11368.000	1533.060
63.000	11408.000	1532.810
65.000	11449.000	1532.930
64.000	11490.000	1533.060
64.000	11527.000	1532.810
63.000	11572.000	1532.930
64.000	11624.000	1532.930
65.000	11669.000	1533.060
64.000	11718.000	1532.810
64.000	11768.000	1533.060
64.000	11818.000	1533.190
64.000	11859.000	1533.320
80.000	11907.000	1533.700
63.000	11963.000	1533.960
65.000	12021.000	1534.600
64.000	12082.000	1535.230
63.000	12149.000	1536.000
65.000	12223.000	1536.770
64.000	12305.000	1537.660
64.000	12397.000	1538.690
64.000	12496.000	1539.840
63.000	12613.000	1541.110
64.000	12725.000	1542.520
64.000	12831.000	1544.050
80.000	12924.000	1545.720
64.000	12948.000	1546.740
64.000	12940.000	1545.200
64.000	12857.000	1543.540
64.000	12696.000	1542.140
64.000	12568.000	1540.730
64.000	12469.000	1539.450
64.000	12372.000	1538.430
64.000	12288.000	1537.280
64.000	12206.000	1536.510
63.000	12138.000	1535.620
65.000	12071.000	1534.850
80.000	12013.000	1534.340
64.000	11963.000	1533.830
64.000	11907.000	1533.450
64.000	11864.000	1533.320
64.000	11815.000	1533.190
64.000	11765.000	1532.930
64.000	11713.000	1533.060
63.000	11668.000	1533.060
64.000	11621.000	1532.930
65.000	11572.000	1532.930
63.000	11533.000	1533.060
64.000	11494.000	1533.060
80.000	11450.000	1532.930
64.000	11415.000	1532.930
64.000	11374.000	1533.060
64.000	11335.000	1532.930
64.000	11299.000	1532.930
64.000	11266.000	1532.930
64.000	11231.000	1532.930
64.000	11196.000	1532.930
63.000	11165.000	1532.930
64.000	11133.000	1532.930
65.000	11098.000	1532.930
64.000	11065.000	1533.060
79.000	11042.000	1532.810
65.000	11019.000	1532.930
64.000	10989.000	1532.930
64.000	10959.000	1532.930
63.000	10939.000	1532.810
65.000	10908.000	1532.930
63.000	10888.000	1532.930
65.000	10860.000	1532.930
63.000	10837.000	1532.930
64.000	10814.000	1532.930
65.000	10794.000	1532.930
63.000	10773.000	1532.930
80.000	10750.000	1532.930
64.000	10731.000	1532.930
65.000	10715.000	1532.930
63.000	10694.000	1532.930
64.000	10678.000	1532.930
64.000	10660.000	1532.930
65.000	10642.000	1532.930
63.000	10627.000	1532.930
64.000	10607.000	1533.060
64.000	10594.000	1532.930
64.000	10580.000	1533.060
64.000	10566.000	1532.930
80.000	10551.000	1532.930
64.000	10539.000	1532.930
63.000	10524.000	1533.060
65.000	10508.000	1532.930
63.000	10494.000	1532.930
65.000	10492.000	1532.930
64.000	10499.000	1532.930
63.000	10500.000	1532.930
64.000	10499.000	1532.930
65.000	10502.000	1532.930
64.000	10501.000	1532.930
64.000	10500.000	1532.930
80.000	10501.000	1533.060
64.000	10502.000	1533.060
64.000	10498.000	1532.930
64.000	10503.000	1532.930
63.000	10504.000	1533.060
64.000	10506.000	1533.060
64.000	10504.000	1533.060
65.000	10502.000	1532.930
63.000	10503.000	1533.060
64.000	10504.000	1533.060
64.000	10502.000	1532.930
64.000	10506.000	1532.930
80.000	10505.000	1533.060
64.000	10505.000	1532.930
64.000	10503.000	1532.930
64.000	10504.000	1532.930
64.000	10500.000	1532.930
63.000	10505.000	1533.190
65.000	10502.000	1532.930
64.000	10503.000	1532.810
64.000	10500.000	1533.060
64.000	10503.000	1532.930
63.000	10504.000	1533.060
65.000	10507.000	1533.060
80.000	10505.000	1532.930
64.000	10509.000	1532.930
64.000	10507.000	1533.060
64.000	10504.000	1533.060
64.000	10504.000	1533.060
63.000	10502.000	1532.930
64.000	10506.000	1532.930
64.000	10508.000	1533.060
64.000	10507.000	1532.930
65.000	10505.000	1532.930
63.000	10508.000	1532.930
64.000	10505.000	1533.060
80.000	10507.000	1533.060
64.000	10506.000	1533.060
64.000	10507.000	1533.060
64.000	10508.000	1533.060
64.000	10508.000	1532.930
64.000	10510.000	1533.060
64.000	10505.000	1532.930
64.000	10506.000	1533.060
64.000	10509.000	1532.930
64.000	10505.000	1532.930
64.000	10508.000	1532.930
64.000	10505.000	1532.930
80.000	10509.000	1533.060
64.000	10508.000	1533.190
64.000	10506.000	1533.060
64.000	10509.000	1533.060
64.000	10506.000	1533.060
64.000	10511.000	1533.060
64.000	10512.000	1533.060
64.000	10508.000	1533.060
64.000	10509.000	1533.060
64.000	10506.000	1533.060
64.000	10514.000	1532.930
64.000	10514.000	1532.930
64.000	10510.000	1533.060
79.000	10510.000	1533.060
64.000	10509.000	1532.930
64.000	10512.000	1532.930
64.000	10516.000	1532.930
65.000	10507.000	1533.060
64.000	10511.000	1533.060
63.000	10514.000	1533.060
65.000	10511.000	1533.060
63.000	10511.000	1532.930
64.000	10512.000	1533.060
64.000	10515.000	1532.930
64.000	10511.000	1533.060
80.000	10511.000	1533.060
64.000	10510.000	1533.060
63.000	10509.000	1532.930
65.000	10510.000	1532.930
64.000	10514.000	1533.060
63.000	10512.000	1532.930
65.000	10515.000	1532.930
63.000	10515.000	1533.060
64.000	10514.000	1533.060
65.000	10510.000	1533.060
64.000	10516.000	1533.060
63.000	10513.000	1533.060
81.000	10515.000	1533.060
64.000	10514.000	1533.060
64.000	10514.000	1532.930
64.000	10514.000	1533.060
64.000	10532.000	1533.060
63.000	10541.000	1532.930
64.000	10560.000	1532.930
65.000	10574.000	1533.060
63.000	10587.000	1532.930
64.000	10603.000	1533.060
64.000	10622.000	1533.060
65.000	10639.000	1533.060
79.000	10652.000	1533.060
65.000	10667.000	1533.060
63.000	10684.000	1533.060
64.000	10705.000	1532.930
64.000	10722.000	1533.060
64.000	10741.000	1533.060
64.000	10767.000	1532.930
63.000	10780.000	1533.060
65.000	10800.000	1533.060
64.000	10821.000	1533.060
64.000	10849.000	1533.060
64.000	10868.000	1533.060
79.000	10895.000	1533.060
64.000	10922.000	1533.060
64.000	10942.000	1533.190
65.000	10969.000	1532.930
63.000	10995.000	1533.060
64.000	11028.000	1533.060
64.000	11054.000	1533.060
65.000	11086.000	1533.060
64.000	11116.000	1533.060
64.000	11144.000	1533.060
63.000	11177.000	1533.060
64.000	11204.000	1532.930
80.000	11240.000	1533.060
64.000	11271.000	1533.060
65.000	11307.000	1532.930
63.000	11344.000	1533.060
64.000	11379.000	1533.060
64.000	11417.000	1533.060
64.000	11457.000	1533.060
64.000	11502.000	1533.060
64.000	11544.000	1533.060
64.000	11586.000	1533.190
64.000	11630.000	1533.060
64.000	11681.000	1533.060
80.000	11726.000	1533.190
64.000	11770.000	1533.060
64.000	11827.000	1533.190
64.000	11869.000	1533.190
64.000	11926.000	1533.700
64.000	11981.000	1533.960
64.000	12022.000	1534.340
63.000	12085.000	1534.980
65.000	12152.000	1535.620
64.000	12218.000	1536.260
64.000	12300.000	1537.150
64.000	12384.000	1538.170
80.000	12482.000	1539.320
64.000	12589.000	1540.600
63.000	12705.000	1541.880
64.000	12816.000	1543.290
64.000	12918.000	1544.820
64.000	12988.000	1546.480
65.000	13007.000	1546.610
63.000	12982.000	1544.820
64.000	12861.000	1543.290
64.000	12711.000	1541.750
64.000	12588.000	1540.480
64.000	12485.000	1539.320
80.000	12394.000	1538.050
65.000	12310.000	1537.280
63.000	12236.000	1536.260
64.000	12169.000	1535.620
64.000	12107.000	1534.850
64.000	12040.000	1534.210
64.000	11989.000	1533.960
64.000	11942.000	1533.450
64.000	11901.000	1533.320
64.000	11852.000	1533.060
64.000	11799.000	1533.060
64.000	11748.000	1533.060
80.000	11704.000	1533.060
64.000	11656.000	1533.060
63.000	11608.000	1533.060
65.000	11569.000	1533.060
64.000	11521.000	1533.060
63.000	11484.000	1533.060
64.000	11451.000	1533.060
65.000	11421.000	1533.060
64.000	11384.000	1533.060
64.000	11341.000	1533.060
64.000	11312.000	1532.930
63.000	11283.000	1533.060
81.000	11244.000	1533.190
63.000	11216.000	1533.060
64.000	11182.000	1533.060
64.000	11150.000	1533.060
65.000	11124.000	1532.930
63.000	11098.000	1533.190
64.000	11064.000	1533.060
65.000	11041.000	1533.060
63.000	11015.000	1533.060
64.000	10986.000	1533.060
64.000	10965.000	1533.060
64.000	10945.000	1533.190
80.000	10916.000	1533.060
64.000	10893.000	1533.060
64.000	10873.000	1533.060
64.000	10849.000	1533.060
64.000	10825.000	1533.060
64.000	10807.000	1533.190
64.000	10785.000	1533.060
64.000	10766.000	1533.190
63.000	10748.000	1533.060
65.000	10730.000	1533.060
64.000	10711.000	1533.060
63.000	10700.000	1533.060
81.000	10679.000	1533.190
64.000	10665.000	1533.060
64.000	10651.000	1533.190
63.000	10637.000	1533.060
64.000	10623.000	1533.060
64.000	10610.000	1532.930
65.000	10589.000	1533.190
63.000	10579.000	1533.060
64.000	10570.000	1533.060
64.000	10554.000	1532.930
65.000	10556.000	1533.060
64.000	10562.000	1533.060
80.000	10564.000	1533.060
63.000	10563.000	1533.190
65.000	10565.000	1533.060
63.000	10564.000	1533.060
64.000	10567.000	1533.060
64.000	10565.000	1533.060
64.000	10567.000	1533.060
64.000	10566.000	1533.060
64.000	10566.000	1533.060
63.000	10566.000	1533.060
65.000	10566.000	1533.060
64.000	10569.000	1532.930
80.000	10569.000	1533.060
64.000	10564.000	1533.190
63.000	10569.000	1533.060
65.000	10568.000	1533.060
64.000	10568.000	1533.060
64.000	10568.000	1533.060
64.000	10565.000	1533.060
63.000	10569.000	1533.190
65.000	10570.000	1533.060
64.000	10566.000	1533.060
63.000	10572.000	1533.190
65.000	10568.000	1533.190
63.000	10569.000	1533.060
80.000	10571.000	1533.060
65.000	10567.000	1533.060
63.000	10570.000	1533.060
64.000	10572.000	1532.930
64.000	10570.000	1533.060
64.000	10572.000	1533.190
64.000	10573.000	1533.190
64.000	10571.000	1533.190
64.000	10572.000	1533.190
64.000	10567.000	1533.060
64.000	10575.000	1533.060
64.000	10574.000	1533.060
80.000	10569.000	1533.190
64.000	10572.000	1533.060
64.000	10568.000	1533.060
64.000	10574.000	1533.060
64.000	10569.000	1533.060
64.000	10574.000	1533.190
63.000	10575.000	1533.060
65.000	10572.000	1533.060
64.000	10570.000	1533.190
64.000	10575.000	1533.190
63.000	10574.000	1533.060
64.000	10574.000	1533.060
80.000	10580.000	1533.060
64.000	10577.000	1533.060
64.000	10572.000	1533.060
65.000	10576.000	1533.190
63.000	10575.000	1533.060
64.000	10573.000	1533.060
64.000	10577.000	1533.190
65.000	10578.000	1533.060
63.000	10578.000	1533.190
64.000	10577.000	1533.060
64.000	10572.000	1533.190
64.000	10580.000	1533.190
80.000	10575.000	1533.190
64.000	10576.000	1533.190
64.000	10583.000	1533.190
64.000	10575.000	1533.060
64.000	10575.000	1533.190
64.000	10578.000	1533.060
64.000	10577.000	1533.190
64.000	10578.000	1533.190
64.000	10576.000	1533.190
64.000	10578.000	1533.060
64.000	10581.000	1533.060
64.000	10579.000	1533.190
80.000	10583.000	1533.060
63.000	10585.000	1533.060
65.000	10581.000	1533.190
63.000	10582.000	1533.190
65.000	10583.000	1533.190
64.000	10579.000	1533.190
63.000	10578.000	1533.320
64.000	10578.000	1533.190
65.000	10585.000	1533.190
63.000	10581.000	1533.060
64.000	10586.000	1533.190
64.000	10582.000	1533.060
80.000	10579.000	1533.190
64.000	10579.000	1533.190
65.000	10583.000	1533.060
63.000	10583.000	1533.190
65.000	10585.000	1533.190
63.000	10581.000	1533.190
64.000	10579.000	1533.190
63.000	10582.000	1533.190
65.000	10589.000	1533.190
64.000	10611.000	1533.060
64.000	10618.000	1533.190
64.000	10633.000	1533.190
80.000	10651.000	1533.190
63.000	10667.000	1533.060
65.000	10680.000	1533.190
64.000	10699.000	1533.190
64.000	10713.000	1533.190
63.000	10728.000	1533.190
65.000	10746.000	1533.190
63.000	10767.000	1533.190
65.000	10788.000	1533.060
64.000	10806.000	1532.930
63.000	10820.000	1533.190
65.000	10839.000	1533.190
79.000	10873.000	1533.060
65.000	10889.000	1533.060
63.000	10908.000	1533.190
65.000	10936.000	1533.190
63.000	10963.000	1533.190
65.000	10982.000	1533.190
63.000	11007.000	1533.190
64.000	11036.000	1533.060
65.000	11066.000	1533.190
63.000	11094.000	1533.190
64.000	11123.000	1533.190
65.000	11149.000	1533.190
79.000	11179.000	1533.190
64.000	11204.000	1533.060
64.000	11239.000	1533.060
64.000	11276.000	1533.190
64.000	11301.000	1533.060
64.000	11337.000	1533.190
64.000	11372.000	1533.060
64.000	11409.000	1533.190
64.000	11444.000	1533.190
64.000	11483.000	1533.060
64.000	11516.000	1533.190
64.000	11564.000	1533.190
80.000	11612.000	1533.190
64.000	11655.000	1533.190
64.000	11701.000	1533.060
64.000	11749.000	1533.190
64.000	11795.000	1533.190
64.000	11843.000	1533.190
64.000	11898.000	1533.320
64.000	11943.000	1533.320
64.000	11991.000	1533.570
63.000	12047.000	1533.830
64.000	12096.000	1534.340
64.000	12154.000	1534.850
80.000	12216.000	1535.360
64.000	12283.000	1536.260
64.000	12358.000	1536.900
64.000	12441.000	1537.920
65.000	12539.000	1538.940
64.000	12644.000	1540.090
63.000	12760.000	1541.370
64.000	12881.000	1542.780
64.000	12984.000	1544.310
65.000	13076.000	1545.720
63.000	13110.000	1546.990
64.000	13108.000	1545.720
80.000	13036.000	1544.180
64.000	12876.000	1542.520
64.000	12738.000	1541.110
64.000	12632.000	1539.960
65.000	12528.000	1538.810
63.000	12440.000	1537.660
64.000	12356.000	1536.900
64.000	12280.000	1536.000
63.000	12211.000	1535.230
65.000	12155.000	1534.470
64.000	12103.000	1533.960
64.000	12045.000	1533.700
80.000	12000.000	1533.450
63.000	11949.000	1533.320
64.000	11901.000	1533.190
65.000	11852.000	1533.320
63.000	11795.000	1533.190
65.000	11752.000	1533.190
64.000	11703.000	1533.190
64.000	11660.000	1533.190
64.000	11613.000	1533.320
63.000	11573.000	1533.190
65.000	11531.000	1533.190
64.000	11490.000	1533.190
63.000	11452.000	1533.190
80.000	11416.000	1533.190
64.000	11377.000	1533.060
64.000	11345.000	1533.190
64.000	11312.000	1533.190
64.000	11280.000	1533.190
64.000	11247.000	1533.190
64.000	11216.000	1533.190
64.000	11190.000	1533.060
64.000	11161.000	1533.060
64.000	11133.000	1533.190
64.000	11102.000	1533.060
64.000	11070.000	1533.190
80.000	11041.000	1533.060
63.000	11017.000	1533.190
65.000	10997.000	1533.060
63.000	10969.000	1533.190
65.000	10950.000	1533.190
63.000	10923.000	1533.190
65.000	10909.000	1533.190
64.000	10879.000	1533.190
64.000	10850.000	1533.320
64.000	10835.000	1533.190
64.000	10822.000	1533.190
63.000	10797.000	1533.190
81.000	10779.000	1533.190
64.000	10758.000	1533.190
64.000	10747.000	1533.190
63.000	10729.000	1533.190
65.000	10709.000	1533.190
63.000	10695.000	1533.320
64.000	10680.000	1533.190
65.000	10663.000	1533.190
64.000	10652.000	1533.060
63.000	10637.000	1533.190
64.000	10625.000	1533.190
64.000	10609.000	1533.060
80.000	10599.000	1533.320
64.000	10582.000	1533.190
64.000	10596.000	1533.190
64.000	10602.000	1533.190
64.000	10599.000	1533.190
64.000	10598.000	1533.190
63.000	10594.000	1533.320
65.000	10599.000	1533.060
64.000	10603.000	1533.190
64.000	10599.000	1533.190
63.000	10597.000	1533.320
64.000	10598.000	1533.190
80.000	10597.000	1533.320
64.000	10602.000	1533.320
64.000	10600.000	1533.190
64.000	10602.000	1533.190
65.000	10598.000	1533.320
63.000	10598.000	1533.190
64.000	10600.000	1533.190
64.000	10596.000	1533.190
64.000	10599.000	1533.190
64.000	10597.000	1533.190
64.000	10604.000	1533.190
64.000	10600.000	1533.320
80.000	10605.000	1533.190
64.000	10601.000	1533.190
64.000	10600.000	1533.190
64.000	10605.000	1533.190
63.000	10602.000	1533.190
65.000	10604.000	1533.190
64.000	10600.000	1533.190
64.000	10604.000	1533.190
64.000	10601.000	1533.190
64.000	10602.000	1533.190
64.000	10601.000	1533.320
63.000	10604.000	1533.190
80.000	10606.000	1533.190
64.000	10607.000	1533.320
65.000	10602.000	1533.320
63.000	10602.000	1533.190
64.000	10603.000	1533.190
65.000	10602.000	1533.190
63.000	10600.000	1533.190
65.000	10602.000	1533.060
63.000	10605.000	1533.320
65.000	10606.000	1533.320
64.000	10607.000	1533.190
63.000	10605.000	1533.320
81.000	10606.000	1533.190
64.000	10605.000	1533.190
63.000	10605.000	1533.190
64.000	10607.000	1533.190
64.000	10602.000	1533.190
64.000	10603.000	1533.320
64.000	10606.000	1533.190
64.000	10608.000	1533.190
64.000	10605.000	1533.190
64.000	10604.000	1533.190
64.000	10607.000	1533.190
64.000	10606.000	1533.060
80.000	10605.000	1533.190
64.000	10604.000	1533.190
64.000	10607.000	1533.320
64.000	10608.000	1533.190
64.000	10608.000	1533.320
63.000	10605.000	1533.190
65.000	10607.000	1533.320
64.000	10609.000	1533.190
64.000	10609.000	1533.190
64.000	10608.000	1533.190
63.000	10606.000	1533.190
65.000	10606.000	1533.320
79.000	10603.000	1533.190
65.000	10607.000	1533.320
64.000	10612.000	1533.190
63.000	10608.000	1533.190
65.000	10608.000	1533.190
63.000	10608.000	1533.320
64.000	10606.000	1533.320
64.000	10607.000	1533.320
65.000	10611.000	1533.320
63.000	10611.000	1533.190
64.000	10611.000	1533.190
64.000	10608.000	1533.190
80.000	10608.000	1533.320
64.000	10610.000	1533.190
64.000	10611.000	1533.320
64.000	10613.000	1533.190
64.000	10611.000	1533.320
64.000	10609.000	1533.190
64.000	10609.000	1533.450
64.000	10611.000	1533.320
64.000	10610.000	1533.320
64.000	10611.000	1533.190
64.000	10610.000	1533.450
63.000	10611.000	1533.320
80.000	10613.000	1533.320
64.000	10620.000	1533.320
65.000	10638.000	1533.320
64.000	10652.000	1533.320
64.000	10663.000	1533.320
64.000	10675.000	1533.190
63.000	10692.000	1533.190
65.000	10710.000	1533.320
63.000	10723.000	1533.320
65.000	10741.000	1533.320
63.000	10764.000	1533.190
65.000	10775.000	1533.320
80.000	10793.000	1533.320
63.000	10810.000	1533.320
64.000	10831.000	1533.320
64.000	10854.000	1533.190
64.000	10876.000	1533.320
64.000	10895.000	1533.190
64.000	10913.000	1533.190
64.000	10945.000	1533.190
64.000	10961.000	1533.320
64.000	10985.000	1533.320
64.000	11012.000	1533.450
64.000	11040.000	1533.320
80.000	11066.000	1533.190
64.000	11088.000	1533.320
63.000	11116.000	1533.190
64.000	11147.000	1533.320
65.000	11175.000	1533.320
64.000	11202.000	1533.320
63.000	11240.000	1533.190
65.000	11266.000	1533.320
63.000	11299.000	1533.320
64.000	11333.000	1533.320
65.000	11365.000	1533.320
63.000	11402.000	1533.190
80.000	11435.000	1533.320
64.000	11472.000	1533.190
64.000	11515.000	1533.320
64.000	11554.000	1533.320
64.000	11595.000	1533.320
65.000	11638.000	1533.320
63.000	11685.000	1533.190
63.000	11735.000	1533.320
65.000	11773.000	1533.190
64.000	11824.000	1533.320
64.000	11878.000	1533.320
64.000	11932.000	1533.320
80.000	11978.000	1533.450
64.000	12026.000	1533.570
64.000	12077.000	1533.960
64.000	12135.000	1534.470
64.000	12191.000	1534.980
64.000	12249.000	1535.490
64.000	12318.000	1536.260
64.000	12394.000	1537.150
64.000	12483.000	1538.050
64.000	12578.000	1539.070
65.000	12684.000	1540.220
63.000	12800.000	1541.630
64.000	12921.000	1543.160
80.000	13026.000	1544.570
64.000	13120.000	1546.100
64.000	13144.000	1547.120
64.000	13133.000	1545.720
63.000	13053.000	1544.050
65.000	12890.000	1542.520
64.000	12759.000	1541.240
63.000	12645.000	1539.840
64.000	12551.000	1538.690
65.000	12454.000	1537.790
63.000	12377.000	1536.770
65.000	12307.000	1535.870
80.000	12235.000	1535.230
64.000	12178.000	1534.600
63.000	12121.000	1534.080
64.000	12071.000	1533.700
64.000	12025.000	1533.570
64.000	11965.000	1533.190
64.000	11925.000	1533.320
64.000	11876.000	1533.320
64.000	11826.000	1533.320
63.000	11769.000	1533.320
65.000	11724.000	1533.320
64.000	11680.000	1533.320
80.000	11641.000	1533.190
64.000	11587.000	1533.320
63.000	11541.000	1533.190
64.000	11509.000	1533.060
64.000	11471.000	1533.320
65.000	11433.000	1533.320
64.000	11402.000	1533.320
64.000	11365.000	1533.190
64.000	11329.000	1533.320
64.000	11300.000	1533.320
64.000	11269.000	1533.320
64.000	11233.000	1533.320
80.000	11206.000	1533.320
63.000	11177.000	1533.320
65.000	11147.000	1533.190
64.000	11124.000	1533.320
63.000	11092.000	1533.320
64.000	11068.000	1533.320
64.000	11034.000	1533.190
64.000	11019.000	1533.320
64.000	10999.000	1533.190
64.000	10967.000	1533.320
65.000	10947.000	1533.320
63.000	10919.000	1533.190
80.000	10902.000	1533.320
64.000	10878.000	1533.320
64.000	10853.000	1533.320
64.000	10836.000	1533.320
64.000	10818.000	1533.320
64.000	10795.000	1533.190
64.000	10778.000	1533.320
64.000	10763.000	1533.190
63.000	10743.000	1533.190
65.000	10730.000	1533.320
64.000	10712.000	1533.320
64.000	10697.000	1533.320
80.000	10683.000	1533.320
64.000	10670.000	1533.320
64.000	10651.000	1533.320
64.000	10643.000	1533.190
63.000	10627.000	1533.320
65.000	10616.000	1533.190
64.000	10611.000	1533.320
63.000	10617.000	1533.450
64.000	10619.000	1533.320
64.000	10623.000	1533.190
64.000	10615.000	1533.450
64.000	10621.000	1533.320
81.000	10617.000	1533.320
63.000	10618.000	1533.320
64.000	10618.000	1533.320
64.000	10620.000	1533.320
64.000	10619.000	1533.190
64.000	10621.000	1533.320
64.000	10618.000	1533.320
64.000	10622.000	1533.190
64.000	10620.000	1533.190
65.000	10622.000	1533.450
63.000	10624.000	1533.190
64.000	10620.000	1533.320
80.000	10619.000	1533.320
64.000	10622.000	1533.190
63.000	10623.000	1533.320
65.000	10621.000	1533.190
64.000	10621.000	1533.320
64.000	10624.000	1533.320
64.000	10621.000	1533.320
63.000	10620.000	1533.450
65.000	10623.000	1533.320
63.000	10621.000	1533.320
65.000	10618.000	1533.320
64.000	10624.000	1533.320
80.000	10621.000	1533.320
64.000	10622.000	1533.190
64.000	10623.000	1533.320
63.000	10624.000	1533.190
64.000	10622.000	1533.320
64.000	10623.000	1533.320
64.000	10623.000	1533.320
64.000	10625.000	1533.190
64.000	10623.000	1533.320
64.000	10623.000	1533.320
64.000	10623.000	1533.320
64.000	10624.000	1533.190
80.000	10624.000	1533.450
64.000	10622.000	1533.320
64.000	10624.000	1533.190
64.000	10625.000	1533.320
63.000	10620.000	1533.320
65.000	10623.000	1533.320
63.000	10624.000	1533.320
65.000	10623.000	1533.320
63.000	10624.000	1533.190
65.000	10627.000	1533.450
63.000	10622.000	1533.320
65.000	10624.000	1533.320
80.000	10623.000	1533.190
64.000	10626.000	1533.320
64.000	10623.000	1533.190
63.000	10624.000	1533.320
65.000	10623.000	1533.320
64.000	10623.000	1533.320
63.000	10623.000	1533.190
65.000	10624.000	1533.320
64.000	10624.000	1533.320
64.000	10624.000	1533.320
63.000	10627.000	1533.190
64.000	10628.000	1533.320
81.000	10626.000	1533.320
64.000	10625.000	1533.320
63.000	10621.000	1533.450
64.000	10627.000	1533.320
65.000	10626.000	1533.320
63.000	10627.000	1533.320
64.000	10624.000	1533.320
64.000	10626.000	1533.450
64.000	10626.000	1533.320
64.000	10625.000	1533.320
64.000	10626.000	1533.320
64.000	10629.000	1533.320
80.000	10628.000	1533.320
64.000	10624.000	1533.450
64.000	10628.000	1533.320
64.000	10627.000	1533.320
64.000	10628.000	1533.450
64.000	10628.000	1533.320
64.000	10623.000	1533.450
63.000	10627.000	1533.320
64.000	10624.000	1533.320
64.000	10623.000	1533.320
65.000	10627.000	1533.450
64.000	10630.000	1533.320
64.000	10628.000	1533.320
79.000	10625.000	1533.320
64.000	10629.000	1533.190
65.000	10624.000	1533.450
63.000	10629.000	1533.320
64.000	10631.000	1533.320
64.000	10643.000	1533.450
64.000	10661.000	1533.320
64.000	10675.000	1533.320
64.000	10688.000	1533.320
64.000	10703.000	1533.320
65.000	10716.000	1533.450
63.000	10729.000	1533.320
80.000	10751.000	1533.320
64.000	10768.000	1533.450
64.000	10789.000	1533.320
64.000	10804.000	1533.450
64.000	10821.000	1533.320
64.000	10845.000	1533.450
64.000	10860.000	1533.320
64.000	10885.000	1533.320
64.000	10899.000	1533.320
64.000	10926.000	1533.320
63.000	10952.000	1533.320
65.000	10973.000	1533.320
79.000	10990.000	1533.450
64.000	11026.000	1533.320
65.000	11039.000	1533.450
64.000	11069.000	1533.450
64.000	11097.000	1533.450
63.000	11122.000	1533.320
64.000	11157.000	1533.450
64.000	11178.000	1533.450
64.000	11210.000	1533.320
65.000	11242.000	1533.320
64.000	11273.000	1533.320
63.000	11301.000	1533.320
81.000	11338.000	1533.320
63.000	11367.000	1533.320
65.000	11401.000	1533.320
63.000	11442.000	1533.320
64.000	11475.000	1533.450
64.000	11511.000	1533.450
64.000	11549.000	1533.320
64.000	11596.000	1533.450
64.000	11636.000	1533.320
64.000	11680.000	1533.450
64.000	11724.000	1533.450
64.000	11772.000	1533.320
80.000	11825.000	1533.450
64.000	11868.000	1533.450
64.000	11921.000	1533.450
64.000	11975.000	1533.450
64.000	12018.000	1533.700
64.000	12069.000	1533.830
63.000	12124.000	1534.470
65.000	12183.000	1534.720
64.000	12242.000	1535.230
63.000	12302.000	1535.870
65.000	12376.000	1536.770
63.000	12458.000	1537.660
80.000	12552.000	1538.690
64.000	12653.000	1539.840
64.000	12766.000	1541.110
64.000	12886.000	1542.390
65.000	12998.000	1543.800
63.000	13099.000	1545.460
65.000	13167.000	1547.120
64.000	13169.000	1546.610
63.000	13131.000	1544.950
64.000	12992.000	1543.410
64.000	12843.000	1541.880
64.000	12717.000	1540.600
80.000	12616.000	1539.320
64.000	12522.000	1538.170
64.000	12435.000	1537.410
64.000	12359.000	1536.390
64.000	12287.000	1535.620
63.000	12223.000	1534.980
64.000	12164.000	1534.470
65.000	12112.000	1533.960
64.000	12060.000	1533.700
64.000	12015.000	1533.450
64.000	11962.000	1533.450
64.000	11916.000	1533.320
79.000	11859.000	1533.450
66.000	11815.000	1533.450
62.000	11766.000	1533.320
65.000	11717.000	1533.450
64.000	11674.000	1533.450
63.000	11636.000	1533.190
64.000	11585.000	1533.450
65.000	11544.000	1533.450
63.000	11505.000	1533.450
64.000	11466.000	1533.320
64.000	11433.000	1533.450
64.000	11401.000	1533.320
81.000	11362.000	1533.320
63.000	11328.000	1533.450
65.000	11299.000	1533.320
63.000	11277.000	1533.450
64.000	11243.000	1533.450
65.000	11206.000	1533.320
63.000	11181.000	1533.450
64.000	11153.000	1533.320
64.000	11125.000	1533.320
64.000	11092.000	1533.320
64.000	11069.000	1533.450
64.000	11035.000	1533.320
79.000	11017.000	1533.320
65.000	10995.000	1533.450
64.000	10964.000	1533.450
64.000	10948.000	1533.450
63.000	10923.000	1533.570
64.000	10903.000	1533.320
65.000	10893.000	1533.320
64.000	10861.000	1533.450
64.000	10849.000	1533.450
64.000	10818.000	1533.320
64.000	10807.000	1533.450
64.000	10790.000	1533.320
79.000	10774.000	1533.320
64.000	10752.000	1533.320
64.000	10737.000	1533.320
64.000	10722.000	1533.450
64.000	10703.000	1533.320
64.000	10690.000	1533.320
64.000	10677.000	1533.320
64.000	10662.000	1533.450
64.000	10651.000	1533.450
64.000	10639.000	1533.320
64.000	10624.000	1533.450
64.000	10630.000	1533.320
81.000	10634.000	1533.320
63.000	10631.000	1533.450
63.000	10634.000	1533.450
65.000	10631.000	1533.450
64.000	10634.000	1533.450
63.000	10630.000	1533.450
65.000	10635.000	1533.450
64.000	10634.000	1533.320
64.000	10630.000	1533.320
64.000	10632.000	1533.320
64.000	10638.000	1533.450
64.000	10632.000	1533.320
79.000	10637.000	1533.450
65.000	10633.000	1533.320
64.000	10639.000	1533.450
64.000	10634.000	1533.320
64.000	10634.000	1533.320
64.000	10636.000	1533.320
64.000	10631.000	1533.450
64.000	10638.000	1533.320
64.000	10637.000	1533.320
63.000	10636.000	1533.450
64.000	10633.000	1533.320
64.000	10637.000	1533.320
80.000	10638.000	1533.450
64.000	10635.000	1533.450
64.000	10634.000	1533.320
64.000	10636.000	1533.450
63.000	10637.000	1533.450
65.000	10629.000	1533.450
64.000	10637.000	1533.450
65.000	10635.000	1533.320
63.000	10638.000	1533.450
64.000	10638.000	1533.450
64.000	10639.000	1533.320
64.000	10637.000	1533.450
64.000	10636.000	1533.320
80.000	10641.000	1533.320
64.000	10636.000	1533.450
63.000	10632.000	1533.320
64.000	10640.000	1533.450
64.000	10640.000	1533.450
65.000	10639.000	1533.320
63.000	10634.000	1533.570
65.000	10638.000	1533.450
63.000	10637.000	1533.320
64.000	10631.000	1533.450
65.000	10636.000	1533.450
79.000	10637.000	1533.450
64.000	10637.000	1533.450
64.000	10633.000	1533.450
64.000	10638.000	1533.450
65.000	10637.000	1533.450
63.000	10636.000	1533.450
64.000	10636.000	1533.450
65.000	10637.000	1533.450
64.000	10641.000	1533.450
63.000	10637.000	1533.450
64.000	10639.000	1533.450
64.000	10641.000	1533.450
64.000	10638.000	1533.450
80.000	10634.000	1533.450
64.000	10640.000	1533.450
64.000	10638.000	1533.570
64.000	10639.000	1533.320
64.000	10641.000	1533.570
64.000	10640.000	1533.450
64.000	10637.000	1533.450
63.000	10639.000	1533.450
65.000	10641.000	1533.320
64.000	10643.000	1533.450
63.000	10640.000	1533.450
65.000	10639.000	1533.450
79.000	10641.000	1533.450
64.000	10639.000	1533.450
64.000	10640.000	1533.320
64.000	10640.000	1533.320
64.000	10639.000	1533.320
64.000	10635.000	1533.450
64.000	10639.000	1533.450
65.000	10637.000	1533.450
63.000	10640.000	1533.450
65.000	10640.000	1533.320
63.000	10640.000	1533.450
64.000	10641.000	1533.320
80.000	10642.000	1533.320
64.000	10643.000	1533.320
64.000	10637.000	1533.450
64.000	10639.000	1533.320
64.000	10642.000	1533.450
64.000	10640.000	1533.450
64.000	10643.000	1533.450
64.000	10637.000	1533.450
63.000	10640.000	1533.570
65.000	10652.000	1533.450
64.000	10665.000	1533.320
63.000	10685.000	1533.320
81.000	10692.000	1533.450
64.000	10708.000	1533.450
64.000	10728.000	1533.570
63.000	10736.000	1533.450
65.000	10754.000	1533.450
64.000	10772.000	1533.450
63.000	10786.000	1533.450
65.000	10810.000	1533.450
64.000	10832.000	1533.570
63.000	10848.000	1533.450
65.000	10864.000	1533.570
64.000	10887.000	1533.450
79.000	10912.000	1533.320
64.000	10927.000	1533.450
64.000	10950.000	1533.320
64.000	10978.000	1533.450
64.000	10999.000	1533.450
65.000	11023.000	1533.450
63.000	11041.000	1533.450
64.000	11070.000	1533.450
64.000	11105.000	1533.450
64.000	11126.000	1533.320
64.000	11151.000	1533.450
64.000	11185.000	1533.450
80.000	11213.000	1533.320
64.000	11244.000	1533.450
64.000	11271.000	1533.450
64.000	11300.000	1533.450
64.000	11335.000	1533.450
64.000	11367.000	1533.570
64.000	11400.000	1533.450
63.000	11436.000	1533.450
65.000	11475.000	1533.450
64.000	11507.000	1533.450
63.000	11548.000	1533.450
64.000	11588.000	1533.450
81.000	11631.000	1533.450
64.000	11676.000	1533.450
63.000	11724.000	1533.450
64.000	11765.000	1533.570
64.000	11814.000	1533.450
65.000	11862.000	1533.450
63.000	11916.000	1533.570
64.000	11965.000	1533.450
64.000	12015.000	1533.700
64.000	12062.000	1533.830
65.000	12118.000	1534.210
63.000	12176.000	1534.600
80.000	12226.000	1535.230
65.000	12289.000	1535.750
63.000	12358.000	1536.390
64.000	12432.000	1537.410
64.000	12521.000	1538.170
64.000	12616.000	1539.450
64.000	12726.000	1540.600
64.000	12845.000	1542.010
63.000	12964.000	1543.160
64.000	13069.000	1544.820
64.000	13159.000	1546.480
64.000	13188.000	1547.380
81.000	13167.000	1545.840
63.000	13078.000	1544.180
64.000	12922.000	1542.650
65.000	12790.000	1541.240
64.000	12679.000	1540.090
64.000	12577.000	1538.940
64.000	12489.000	1537.920
64.000	12407.000	1536.900
64.000	12335.000	1536.000
63.000	12267.000	1535.360
64.000	12209.000	1534.720
64.000	12153.000	1534.210
80.000	12099.000	1533.960
64.000	12055.000	1533.830
64.000	12004.000	1533.450
64.000	11949.000	1533.450
64.000	11901.000	1533.570
64.000	11850.000	1533.450
63.000	11801.000	1533.450
65.000	11758.000	1533.570
64.000	11719.000	1533.570
64.000	11664.000	1533.450
64.000	11622.000	1533.570
63.000	11576.000	1533.570
81.000	11539.000	1533.450
64.000	11503.000	1533.450
64.000	11466.000	1533.450
64.000	11428.000	1533.450
63.000	11396.000	1533.450
64.000	11357.000	1533.450
65.000	11325.000	1533.450
63.000	11291.000	1533.320
65.000	11263.000	1533.570
64.000	11236.000	1533.450
63.000	11205.000	1533.450
64.000	11177.000	1533.450
80.000	11147.000	1533.450
64.000	11124.000	1533.450
64.000	11094.000	1533.450
64.000	11069.000	1533.320
64.000	11043.000	1533.450
64.000	11020.000	1533.320
64.000	10995.000	1533.570
64.000	10972.000	1533.570
64.000	10950.000	1533.570
64.000	10931.000	1533.450
64.000	10908.000	1533.450
64.000	10885.000	1533.450
80.000	10868.000	1533.320
64.000	10842.000	1533.450
64.000	10824.000	1533.450
64.000	10810.000	1533.450
64.000	10787.000	1533.450
64.000	10774.000	1533.450
63.000	10755.000	1533.450
64.000	10739.000	1533.450
64.000	10727.000	1533.450
64.000	10711.000	1533.320
65.000	10697.000	1533.450
64.000	10681.000	1533.450
80.000	10664.000	1533.450
63.000	10656.000	1533.450
64.000	10639.000	1533.450
65.000	10635.000	1533.570
64.000	10645.000	1533.450
63.000	10646.000	1533.450
64.000	10646.000	1533.570
64.000	10645.000	1533.570
64.000	10647.000	1533.570
65.000	10646.000	1533.450
64.000	10644.000	1533.450
63.000	10644.000	1533.450
80.000	10643.000	1533.570
64.000	10644.000	1533.450
64.000	10646.000	1533.450
64.000	10645.000	1533.450
63.000	10647.000	1533.450
65.000	10648.000	1533.450
64.000	10649.000	1533.570
64.000	10648.000	1533.450
63.000	10644.000	1533.450
65.000	10649.000	1533.450
63.000	10648.000	1533.570
65.000	10652.000	1533.570
64.000	10648.000	1533.450
79.000	10653.000	1533.450
64.000	10645.000	1533.450
65.000	10648.000	1533.450
64.000	10647.000	1533.450
64.000	10645.000	1533.570
64.000	10645.000	1533.570
64.000	10650.000	1533.450
63.000	10649.000	1533.450
64.000	10647.000	1533.570
65.000	10645.000	1533.450
63.000	10648.000	1533.700
64.000	10648.000	1533.570
81.000	10647.000	1533.450
63.000	10649.000	1533.450
64.000	10649.000	1533.450
64.000	10649.000	1533.450
65.000	10651.000	1533.450
63.000	10648.000	1533.450
64.000	10648.000	1533.320
65.000	10651.000	1533.450
63.000	10644.000	1533.570
64.000	10649.000	1533.570
64.000	10649.000	1533.450
64.000	10649.000	1533.450
80.000	10647.000	1533.450
64.000	10647.000	1533.570
64.000	10650.000	1533.450
63.000	10648.000	1533.570
65.000	10650.000	1533.450
63.000	10649.000	1533.570
64.000	10646.000	1533.570
64.000	10651.000	1533.570
65.000	10653.000	1533.570
64.000	10653.000	1533.450
63.000	10652.000	1533.450
65.000	10648.000	1533.450
80.000	10646.000	1533.450
64.000	10651.000	1533.450
63.000	10649.000	1533.570
65.000	10650.000	1533.570
63.000	10652.000	1533.450
65.000	10650.000	1533.570
63.000	10650.000	1533.570
64.000	10652.000	1533.570
64.000	10650.000	1533.700
64.000	10653.000	1533.450
64.000	10647.000	1533.450
65.000	10649.000	1533.570
80.000	10652.000	1533.570
63.000	10650.000	1533.570
64.000	10651.000	1533.570
64.000	10651.000	1533.570
64.000	10652.000	1533.450
64.000	10652.000	1533.570
64.000	10650.000	1533.570
64.000	10653.000	1533.450
64.000	10651.000	1533.570
64.000	10650.000	1533.450
64.000	10656.000	1533.570
63.000	10648.000	1533.570
81.000	10656.000	1533.570
64.000	10648.000	1533.570
63.000	10652.000	1533.570
64.000	10650.000	1533.570
64.000	10651.000	1533.570
65.000	10653.000	1533.450
63.000	10652.000	1533.570
65.000	10655.000	1533.450
63.000	10649.000	1533.450
64.000	10649.000	1533.450
65.000	10656.000	1533.450
63.000	10651.000	1533.570
80.000	10659.000	1533.450
64.000	10653.000	1533.570
65.000	10672.000	1533.450
63.000	10687.000	1533.570
64.000	10696.000	1533.450
64.000	10713.000	1533.570
64.000	10728.000	1533.570
64.000	10744.000	1533.570
64.000	10760.000	1533.570
64.000	10776.000	1533.450
64.000	10797.000	1533.450
64.000	10813.000	1533.570
81.000	10831.000	1533.570
63.000	10849.000	1533.570
64.000	10872.000	1533.570
63.000	10889.000	1533.570
64.000	10913.000	1533.570
64.000	10935.000	1533.450
65.000	10952.000	1533.570
64.000	10975.000	1533.570
63.000	11002.000	1533.570
65.000	11022.000	1533.570
63.000	11046.000	1533.570
64.000	11073.000	1533.570
81.000	11103.000	1533.570
64.000	11130.000	1533.570
63.000	11155.000	1533.570
65.000	11181.000	1533.450
64.000	11212.000	1533.570
63.000	11241.000	1533.570
64.000	11266.000	1533.570
64.000	11301.000	1533.570
64.000	11334.000	1533.570
64.000	11364.000	1533.570
64.000	11396.000	1533.570
65.000	11427.000	1533.570
79.000	11466.000	1533.570
64.000	11503.000	1533.570
65.000	11538.000	1533.570
63.000	11583.000	1533.450
64.000	11626.000	1533.570
64.000	11670.000	1533.570
64.000	11716.000	1533.570
64.000	11761.000	1533.450
64.000	11806.000	1533.570
64.000	11853.000	1533.570
64.000	11902.000	1533.570
63.000	11953.000	1533.450
81.000	12001.000	1533.700
64.000	12049.000	1533.960
63.000	12103.000	1534.080
65.000	12160.000	1534.470
63.000	12214.000	1535.110
64.000	12271.000	1535.620
64.000	12340.000	1536.260
65.000	12415.000	1536.900
64.000	12491.000	1537.920
63.000	12587.000	1538.810
64.000	12692.000	1540.090
64.000	12796.000	1541.240
81.000	12926.000	1542.780
63.000	13037.000	1544.180
65.000	13138.000	1545.720
63.000	13202.000	1547.380
65.000	13197.000	1546.870
63.000	13158.000	1544.950
64.000	13007.000	1543.410
64.000	12859.000	1542.010
64.000	12743.000	1540.600
64.000	12639.000	1539.320
65.000	12546.000	1538.430
63.000	12457.000	1537.540
80.000	12380.000	1536.510
64.000	12311.000	1535.750
64.000	12249.000	1535.110
64.000	12190.000	1534.600
64.000	12137.000	1534.210
64.000	12085.000	1533.830
63.000	12043.000	1533.700
65.000	11987.000	1533.570
64.000	11946.000	1533.570
64.000	11883.000	1533.570
64.000	11835.000	1533.450
64.000	11787.000	1533.570
79.000	11743.000	1533.570
64.000	11699.000	1533.450
65.000	11651.000	1533.450
64.000	11603.000	1533.570
64.000	11571.000	1533.570
63.000	11528.000	1533.570
65.000	11491.000	1533.450
63.000	11456.000	1533.570
64.000	11423.000	1533.700
65.000	11386.000	1533.570
63.000	11350.000	1533.450
64.000	11321.000	1533.450
64.000	11295.000	1533.570
80.000	11265.000	1533.700
64.000	11226.000	1533.570
64.000	11208.000	1533.570
64.000	11173.000	1533.450
64.000	11144.000	1533.570
64.000	11117.000	1533.570
64.000	11095.000	1533.450
64.000	11067.000	1533.700
64.000	11043.000	1533.450
65.000	11011.000	1533.570
63.000	10997.000	1533.570
64.000	10970.000	1533.450
79.000	10949.000	1533.570
65.000	10921.000	1533.570
63.000	10905.000	1533.570
66.000	10887.000	1533.570
63.000	10864.000	1533.570
63.000	10846.000	1533.700
65.000	10830.000	1533.570
63.000	10811.000	1533.450
65.000	10793.000	1533.450
63.000	10768.000	1533.570
64.000	10762.000	1533.570
65.000	10739.000	1533.570
79.000	10727.000	1533.570
65.000	10709.000	1533.570
64.000	10696.000	1533.700
63.000	10682.000	1533.570
64.000	10668.000	1533.570
64.000	10655.000	1533.570
64.000	10644.000	1533.450
64.000	10652.000	1533.450
64.000	10653.000	1533.570
64.000	10656.000	1533.570
64.000	10656.000	1533.450
64.000	10656.000	1533.450
80.000	10657.000	1533.450
64.000	10651.000	1533.700
64.000	10657.000	1533.570
64.000	10655.000	1533.450
64.000	10653.000	1533.570
64.000	10656.000	1533.450
64.000	10656.000	1533.570
64.000	10658.000	1533.570
64.000	10657.000	1533.570
63.000	10658.000	1533.570
64.000	10653.000	1533.570
64.000	10655.000	1533.570
81.000	10661.000	1533.570
63.000	10653.000	1533.570
65.000	10658.000	1533.570
63.000	10658.000	1533.570
65.000	10656.000	1533.570
64.000	10658.000	1533.570
63.000	10656.000	1533.570
64.000	10656.000	1533.570
65.000	10656.000	1533.450
64.000	10654.000	1533.700
63.000	10660.000	1533.570
64.000	10658.000	1533.570
80.000	10655.000	1533.570
64.000	10659.000	1533.570
64.000	10657.000	1533.570
64.000	10658.000	1533.450
64.000	10660.000	1533.570
64.000	10660.000	1533.570
64.000	10658.000	1533.700
64.000	10657.000	1533.570
63.000	10660.000	1533.570
65.000	10659.000	1533.570
64.000	10659.000	1533.570
64.000	10661.000	1533.450
80.000	10659.000	1533.570
64.000	10657.000	1533.570
64.000	10655.000	1533.570
64.000	10657.000	1533.570
64.000	10660.000	1533.570
64.000	10659.000	1533.570
64.000	10658.000	1533.570
63.000	10656.000	1533.570
64.000	10657.000	1533.700
65.000	10657.000	1533.570
64.000	10659.000	1533.700
63.000	10659.000	1533.570
80.000	10663.000	1533.570
65.000	10659.000	1533.570
63.000	10659.000	1533.570
64.000	10662.000	1533.570
65.000	10659.000	1533.700
63.000	10660.000	1533.570
64.000	10661.000	1533.450
64.000	10660.000	1533.570
64.000	10658.000	1533.570
64.000	10659.000	1533.570
64.000	10660.000	1533.570
64.000	10661.000	1533.700
80.000	10663.000	1533.570
64.000	10657.000	1533.570
64.000	10660.000	1533.570
63.000	10660.000	1533.700
65.000	10659.000	1533.570
64.000	10661.000	1533.570
64.000	10659.000	1533.570
64.000	10665.000	1533.700
63.000	10663.000	1533.700
64.000	10658.000	1533.570
64.000	10660.000	1533.570
64.000	10662.000	1533.570
80.000	10656.000	1533.570
65.000	10664.000	1533.570
64.000	10660.000	1533.570
63.000	10662.000	1533.570
65.000	10659.000	1533.570
64.000	10658.000	1533.700
64.000	10659.000	1533.700
63.000	10663.000	1533.570
64.000	10661.000	1533.570
64.000	10664.000	1533.700
65.000	10660.000	1533.570
63.000	10664.000	1533.570
80.000	10658.000	1533.570
64.000	10661.000	1533.570
64.000	10662.000	1533.570
64.000	10660.000	1533.700
64.000	10662.000	1533.570
64.000	10662.000	1533.570
64.000	10662.000	1533.570
64.000	10660.000	1533.450
64.000	10661.000	1533.700
64.000	10664.000	1533.570
64.000	10663.000	1533.700
64.000	10666.000	1533.570
80.000	10660.000	1533.570
63.000	10661.000	1533.570
65.000	10663.000	1533.700
64.000	10664.000	1533.570
64.000	10664.000	1533.700
63.000	10660.000	1533.570
65.000	10662.000	1533.570
63.000	10660.000	1533.700
64.000	10659.000	1533.570
64.000	10664.000	1533.570
64.000	10664.000	1533.700
65.000	10661.000	1533.570
80.000	10660.000	1533.570
64.000	10669.000	1533.700
63.000	10665.000	1533.570
64.000	10658.000	1533.570
65.000	10661.000	1533.700
63.000	10659.000	1533.700
65.000	10662.000	1533.700
63.000	10662.000	1533.570
64.000	10662.000	1533.450
64.000	10663.000	1533.450
64.000	10663.000	1533.570
64.000	10664.000	1533.700
79.000	10667.000	1533.700
65.000	10665.000	1533.700
63.000	10666.000	1533.570
65.000	10661.000	1533.700
64.000	10660.000	1533.700
63.000	10662.000	1533.570
65.000	10667.000	1533.700
64.000	10663.000	1533.570
64.000	10664.000	1533.570
63.000	10665.000	1533.700
65.000	10667.000	1533.700
64.000	10665.000	1533.570
80.000	10665.000	1533.570
64.000	10666.000	1533.700
63.000	10666.000	1533.700
64.000	10663.000	1533.570
64.000	10667.000	1533.570
64.000	10665.000	1533.830
65.000	10663.000	1533.700
64.000	10664.000	1533.700
63.000	10666.000	1533.570
65.000	10663.000	1533.700
63.000	10665.000	1533.570
64.000	10661.000	1533.700
64.000	10664.000	1533.570
80.000	10666.000	1533.570
64.000	10664.000	1533.700
64.000	10664.000	1533.570
64.000	10668.000	1533.570
64.000	10664.000	1533.570
64.000	10663.000	1533.830
64.000	10665.000	1533.570
64.000	10663.000	1533.570
64.000	10664.000	1533.570
64.000	10666.000	1533.700
63.000	10668.000	1533.700
64.000	10664.000	1533.570
81.000	10664.000	1533.700
63.000	10668.000	1533.700
65.000	10665.000	1533.700
63.000	10664.000	1533.700
64.000	10665.000	1533.700
65.000	10667.000	1533.570
63.000	10667.000	1533.700
64.000	10662.000	1533.700
64.000	10666.000	1533.570
64.000	10668.000	1533.570
64.000	10664.000	1533.700
64.000	10668.000	1533.700
80.000	10669.000	1533.570
64.000	10665.000	1533.700
65.000	10669.000	1533.700
63.000	10667.000	1533.570
65.000	10661.000	1533.570
63.000	10665.000	1533.570
66.000	10669.000	1533.700
62.000	10667.000	1533.570
64.000	10670.000	1533.700
66.000	10666.000	1533.700
62.000	10666.000	1533.700
64.000	10667.000	1533.700
80.000	10666.000	1533.700
68.000	10668.000	1533.700
